Folder: gamry_post_processing_/input/ECSA_test (part 5)

File: CV_ECSA_#1_#9.DTA
EXPLAIN
TAG	CV
TITLE	LABEL	ECSA	Test Identifier
DATE	LABEL	2/13/2024	Date
TIME	LABEL	8:50:28	Time
NOTES	NOTES	1	Notes...

PSTAT	PSTAT	IFC1010-36068	Potentiostat
VINIT	POTEN	1.00000E-001	F	Initial E (V)
VLIMIT1	POTEN	3.00000E-001	F	Scan Limit 1 (V)
VLIMIT2	POTEN	1.00000E-001	F	Scan Limit 2 (V)
VFINAL	POTEN	1.00000E-001	F	Final E (V)
SCANRATE	QUANT	8.99998E+001	A Real Number
STEPSIZE	QUANT	1.00000E+000	Step Size (mV)
CYCLES	IQUANT	3	Cycles (#)
IMODE	SELECTOR	1	I/E Range Mode
IRANGE	QUANT	3.00000E-001	Max Current (mA)
AREA	QUANT	1.00000E+000	Sample Area (cm^2)
EQDELAY	QUANT	0.00000E+000	Equil. Time (s)
IRCOMP	SELECTOR	0	IRComp
PFCOR	QUANT	5.00000E+001	PF Corr. (ohm)
SAMPLINGMODE	SELECTOR	2	Sampling Mode
EOC	QUANT	0.3246219	Open Circuit (V)
ELECTRODETYPE	SELECTOR	0	Electrode Type
STRIPPING	TOGGLE	F	Used for Stripping
SEQUENCER	TOGGLE	TRUE	Run as Sequence
PSTATMODEL	IQUANT	64	Pstat Model
PSTATSECTION	LABEL	IFC1010-36068	Pstat Section
PSTATSERIALNO	LABEL	36068	Pstat Serial Number
CTRLMODE	IQUANT	1	Control Mode
ELECTROMETER	IQUANT	0	RE=0 or CS=1
IESTAB	IQUANT	2	I/E Stability
CASPEED	IQUANT	4	Control Amp Speed
CONVENTION	IQUANT	1	Current Convention
ICHRANGE	IQUANT	2	Ich Range
ICHRANGEMODE	TOGGLE	F	Ich Auto Range
ICHOFFSETENABLE	TOGGLE	F	Ich Offset Enable
ICHOFFSET	QUANT	0	Ich Offset (V)
ICHFILTER	IQUANT	3	Ich Filter
VCHRANGE	IQUANT	2	Vch Range
VCHRANGEMODE	TOGGLE	F	Vch Auto Range
VCHOFFSETENABLE	TOGGLE	F	Vch Offset Enable
VCHOFFSET	QUANT	0	Vch Offset (V)
VCHFILTER	IQUANT	3	Vch Filter
IERANGELOWERLIMIT	IQUANT	4	I/E Range Lower Limit
IERANGEMODE	TOGGLE	F	I/E AutoRange
IERANGE	IQUANT	9	I/E Range
ACHSELECT	IQUANT	0	Ach Select
ACHRANGE	IQUANT	2	Ach Range
ACHOFFSETENABLE	TOGGLE	F	Ach Offset Enable
ACHOFFSET	QUANT	0	Ach Offset (V)
ACHFILTER	IQUANT	1	Ach Filter
SENSECABLEID	IQUANT	13	Sense Cable ID
PWRCABLEID	IQUANT	13	Power Cable ID
DCCALDATE	LABEL	8/11/2023	DC Calibration Date
ACCALDATE	LABEL	6/2/2023	AC Calibration Date
FRAMEWORKVERSION	LABEL	7.10.3	Framework Version
INSTRUMENTVERSION	LABEL	4.91	Instrument Version
COMMVERSION	LABEL	3.10	Communications Version
CPUPLDVERSION	LABEL	2.22	CPU PLD Version
CTRLPLDVERSION	LABEL	0.00	CTRL PLD Version
PSTATPLDVERSION	LABEL	0.00	PSTAT PLD Version
CURVE1	TABLE
	Pt	T	Vf	Im	Vu	Sig	Ach	IERange	Over	Temp
	#	s	V vs. Ref.	A	V	V	V	#	bits	deg C
	0	0.011117	1.00001E-001	-1.05217E-005	0.00000E+000	1.00003E-001	0.00000E+000	9	...........	1467.43
	5	0.0667	1.04970E-001	-8.09484E-006	0.00000E+000	1.05001E-001	0.00000E+000	9	...........	1467.43
	10	0.122283	1.09971E-001	-7.27763E-006	0.00000E+000	1.10000E-001	0.00000E+000	9	...........	1467.43
	15	0.177867	1.14988E-001	-6.58610E-006	0.00000E+000	1.15010E-001	0.00000E+000	9	...........	1467.43
	20	0.23345	1.19978E-001	-5.97482E-006	0.00000E+000	1.20009E-001	0.00000E+000	9	...........	1467.43
	25	0.289033	1.24971E-001	-5.38138E-006	0.00000E+000	1.25007E-001	0.00000E+000	9	...........	1467.43
	30	0.344617	1.29982E-001	-4.81901E-006	0.00000E+000	1.30018E-001	0.00000E+000	9	...........	1467.43
	35	0.4002	1.34983E-001	-4.32821E-006	0.00000E+000	1.35016E-001	0.00000E+000	9	...........	1467.43
	40	0.455783	1.39974E-001	-3.90301E-006	0.00000E+000	1.40014E-001	0.00000E+000	9	...........	1467.43
	45	0.511367	1.44987E-001	-3.47586E-006	0.00000E+000	1.45025E-001	0.00000E+000	9	...........	1467.43
	50	0.56695	1.49976E-001	-3.06078E-006	0.00000E+000	1.50023E-001	0.00000E+000	9	...........	1467.43
	55	0.622533	1.54982E-001	-2.65132E-006	0.00000E+000	1.55021E-001	0.00000E+000	9	...........	1467.43
	60	0.678117	1.59991E-001	-2.29328E-006	0.00000E+000	1.60032E-001	0.00000E+000	9	...........	1467.43
	65	0.7337	1.64970E-001	-1.98286E-006	0.00000E+000	1.65030E-001	0.00000E+000	9	...........	1467.43
	70	0.789283	1.70009E-001	-1.64165E-006	0.00000E+000	1.70041E-001	0.00000E+000	9	...........	1467.43
	75	0.844867	1.75001E-001	-1.32050E-006	0.00000E+000	1.75039E-001	0.00000E+000	9	...........	1467.43
	80	0.90045	1.80004E-001	-1.01057E-006	0.00000E+000	1.80038E-001	0.00000E+000	9	...........	1467.43
	85	0.95603	1.85013E-001	-7.17236E-007	0.00000E+000	1.85048E-001	0.00000E+000	9	...........	1467.43
	90	1.01162	1.90004E-001	-4.74968E-007	0.00000E+000	1.90047E-001	0.00000E+000	9	...........	1467.43
	95	1.0672	1.95023E-001	-1.96765E-007	0.00000E+000	1.95045E-001	0.00000E+000	9	...........	1467.43
	100	1.12278	2.00025E-001	1.04191E-007	0.00000E+000	2.00056E-001	0.00000E+000	9	...........	1467.43
	105	1.17837	2.05029E-001	3.38891E-007	0.00000E+000	2.05054E-001	0.00000E+000	9	...........	1467.52
	110	1.23395	2.10009E-001	5.48884E-007	0.00000E+000	2.10052E-001	0.00000E+000	9	...........	1467.52
	115	1.28953	2.15013E-001	7.89047E-007	0.00000E+000	2.15063E-001	0.00000E+000	9	...........	1467.52
	120	1.34512	2.20019E-001	1.00861E-006	0.00000E+000	2.20061E-001	0.00000E+000	9	...........	1467.52
	125	1.4007	2.25003E-001	1.25895E-006	0.00000E+000	2.25059E-001	0.00000E+000	9	...........	1467.52
	130	1.45628	2.30016E-001	1.45095E-006	0.00000E+000	2.30070E-001	0.00000E+000	9	...........	1467.52
	135	1.51187	2.35020E-001	1.61634E-006	0.00000E+000	2.35068E-001	0.00000E+000	9	...........	1467.52
	140	1.56745	2.40015E-001	1.80197E-006	0.00000E+000	2.40067E-001	0.00000E+000	9	...........	1467.52
	145	1.62303	2.45042E-001	2.00430E-006	0.00000E+000	2.45077E-001	0.00000E+000	9	...........	1467.52
	150	1.67862	2.50033E-001	2.19084E-006	0.00000E+000	2.50076E-001	0.00000E+000	9	...........	1467.52
	155	1.7342	2.55015E-001	2.35016E-006	0.00000E+000	2.55074E-001	0.00000E+000	9	...........	1467.52
	160	1.78978	2.60036E-001	2.49675E-006	0.00000E+000	2.60085E-001	0.00000E+000	9	...........	1467.52
	165	1.84537	2.65028E-001	2.68089E-006	0.00000E+000	2.65083E-001	0.00000E+000	9	...........	1467.52
	170	1.90095	2.70037E-001	2.86301E-006	0.00000E+000	2.70081E-001	0.00000E+000	9	...........	1467.52
	175	1.95653	2.75052E-001	3.02439E-006	0.00000E+000	2.75092E-001	0.00000E+000	9	...........	1467.52
	180	2.01212	2.80027E-001	3.16778E-006	0.00000E+000	2.80090E-001	0.00000E+000	9	...........	1467.52
	185	2.0677	2.85042E-001	3.31943E-006	0.00000E+000	2.85088E-001	0.00000E+000	9	...........	1467.52
	190	2.12328	2.90052E-001	3.50352E-006	0.00000E+000	2.90099E-001	0.00000E+000	9	...........	1467.52
	195	2.17887	2.95071E-001	3.69055E-006	0.00000E+000	2.95097E-001	0.00000E+000	9	...........	1467.52
	200	2.23445	3.00050E-001	3.85399E-006	0.00000E+000	3.00096E-001	0.00000E+000	9	...........	1467.52
	205	2.29003	2.95111E-001	6.69718E-007	0.00000E+000	2.95097E-001	0.00000E+000	9	...........	1467.52
	210	2.34562	2.90099E-001	1.66838E-007	0.00000E+000	2.90099E-001	0.00000E+000	9	...........	1467.52
	215	2.4012	2.85091E-001	-1.85188E-007	0.00000E+000	2.85088E-001	0.00000E+000	9	...........	1467.52
	220	2.45678	2.80075E-001	-4.90805E-007	0.00000E+000	2.80090E-001	0.00000E+000	9	...........	1467.52
	225	2.51237	2.75099E-001	-7.87351E-007	0.00000E+000	2.75092E-001	0.00000E+000	9	...........	1467.52
	230	2.56795	2.70092E-001	-1.07603E-006	0.00000E+000	2.70081E-001	0.00000E+000	9	...........	1467.52
	235	2.62353	2.65078E-001	-1.31484E-006	0.00000E+000	2.65083E-001	0.00000E+000	9	...........	1467.52
	240	2.67912	2.60070E-001	-1.52152E-006	0.00000E+000	2.60085E-001	0.00000E+000	9	...........	1467.52
	245	2.7347	2.55040E-001	-1.74876E-006	0.00000E+000	2.55074E-001	0.00000E+000	9	...........	1467.52
[...]
	1036	11.528	2.64076E-001	-1.33864E-006	0.00000E+000	2.64083E-001	0.00000E+000	9	...........	1467.52
	1041	11.5836	2.59089E-001	-1.56222E-006	0.00000E+000	2.59085E-001	0.00000E+000	9	...........	1467.52
	1046	11.6391	2.54059E-001	-1.80288E-006	0.00000E+000	2.54074E-001	0.00000E+000	9	...........	1467.52
	1051	11.6947	2.49080E-001	-2.03703E-006	0.00000E+000	2.49076E-001	0.00000E+000	9	...........	1467.52
	1056	11.7503	2.44089E-001	-2.24918E-006	0.00000E+000	2.44078E-001	0.00000E+000	9	...........	1467.52
	1061	11.8059	2.39058E-001	-2.43888E-006	0.00000E+000	2.39067E-001	0.00000E+000	9	...........	1467.52
	1066	11.8615	2.34074E-001	-2.66977E-006	0.00000E+000	2.34069E-001	0.00000E+000	9	...........	1467.52
	1071	11.9171	2.29076E-001	-2.91133E-006	0.00000E+000	2.29071E-001	0.00000E+000	9	...........	1467.52
	1076	11.9727	2.24070E-001	-3.14238E-006	0.00000E+000	2.24060E-001	0.00000E+000	9	...........	1467.52
	1081	12.0282	2.19058E-001	-3.36665E-006	0.00000E+000	2.19062E-001	0.00000E+000	9	...........	1467.52
	1086	12.0838	2.14037E-001	-3.60977E-006	0.00000E+000	2.14051E-001	0.00000E+000	9	...........	1467.52
	1091	12.1394	2.09049E-001	-3.86933E-006	0.00000E+000	2.09053E-001	0.00000E+000	9	...........	1467.63
	1096	12.195	2.04053E-001	-4.15460E-006	0.00000E+000	2.04054E-001	0.00000E+000	9	...........	1467.70
	1101	12.2506	1.99063E-001	-4.43556E-006	0.00000E+000	1.99043E-001	0.00000E+000	9	...........	1467.70
	1106	12.3062	1.94069E-001	-4.69171E-006	0.00000E+000	1.94045E-001	0.00000E+000	9	...........	1467.70
	1111	12.3617	1.89045E-001	-4.98695E-006	0.00000E+000	1.89047E-001	0.00000E+000	9	...........	1467.70
	1116	12.4173	1.84041E-001	-5.33567E-006	0.00000E+000	1.84036E-001	0.00000E+000	9	...........	1467.70
	1121	12.4729	1.79020E-001	-5.64510E-006	0.00000E+000	1.79038E-001	0.00000E+000	9	...........	1467.70
	1126	12.5285	1.74045E-001	-5.95918E-006	0.00000E+000	1.74040E-001	0.00000E+000	9	...........	1467.70
	1131	12.5841	1.69039E-001	-6.27853E-006	0.00000E+000	1.69029E-001	0.00000E+000	9	...........	1467.70
	1136	12.6397	1.64022E-001	-6.61768E-006	0.00000E+000	1.64031E-001	0.00000E+000	9	...........	1467.70
	1141	12.6952	1.59019E-001	-6.98649E-006	0.00000E+000	1.59032E-001	0.00000E+000	9	...........	1467.70
	1146	12.7508	1.54012E-001	-7.33190E-006	0.00000E+000	1.54022E-001	0.00000E+000	9	...........	1467.70
	1151	12.8064	1.49017E-001	-7.67721E-006	0.00000E+000	1.49023E-001	0.00000E+000	9	...........	1467.70
	1156	12.862	1.44016E-001	-8.04468E-006	0.00000E+000	1.44025E-001	0.00000E+000	9	...........	1467.70
	1161	12.9176	1.39009E-001	-8.45348E-006	0.00000E+000	1.39014E-001	0.00000E+000	9	...........	1467.70
	1166	12.9732	1.34016E-001	-8.86220E-006	0.00000E+000	1.34016E-001	0.00000E+000	9	...........	1467.70
	1171	13.0287	1.29031E-001	-9.25792E-006	0.00000E+000	1.29018E-001	0.00000E+000	9	...........	1467.70
	1176	13.0843	1.24010E-001	-9.66603E-006	0.00000E+000	1.24007E-001	0.00000E+000	9	...........	1467.70
	1181	13.1399	1.19021E-001	-1.01240E-005	0.00000E+000	1.19009E-001	0.00000E+000	9	...........	1467.65
	1186	13.1955	1.13998E-001	-1.06003E-005	0.00000E+000	1.14011E-001	0.00000E+000	9	...........	1467.61
	1191	13.2511	1.09008E-001	-1.10852E-005	0.00000E+000	1.09000E-001	0.00000E+000	9	...........	1467.61
	1196	13.3067	1.04020E-001	-1.15586E-005	0.00000E+000	1.04002E-001	0.00000E+000	9	...........	1467.61
	1200	13.3511	1.00007E-001	-1.19943E-005	0.00000E+000	1.00003E-001	0.00000E+000	9	...........	1467.61
CURVE4	TABLE
	Pt	T	Vf	Im	Vu	Sig	Ach	IERange	Over	Temp
	#	s	V vs. Ref.	A	V	V	V	#	bits	deg C
	1201	13.3622	9.99903E-002	-1.07323E-005	0.00000E+000	1.00003E-001	0.00000E+000	9	...........	1467.61

File: CV_ECSA_#1_#10.DTA
EXPLAIN
TAG	CV
TITLE	LABEL	ECSA	Test Identifier
DATE	LABEL	2/13/2024	Date
TIME	LABEL	8:50:41	Time
NOTES	NOTES	1	Notes...

PSTAT	PSTAT	IFC1010-36068	Potentiostat
VINIT	POTEN	1.00000E-001	F	Initial E (V)
VLIMIT1	POTEN	3.00000E-001	F	Scan Limit 1 (V)
VLIMIT2	POTEN	1.00000E-001	F	Scan Limit 2 (V)
VFINAL	POTEN	1.00000E-001	F	Final E (V)
SCANRATE	QUANT	9.99548E+001	A Real Number
STEPSIZE	QUANT	1.00000E+000	Step Size (mV)
CYCLES	IQUANT	3	Cycles (#)
IMODE	SELECTOR	1	I/E Range Mode
IRANGE	QUANT	3.00000E-001	Max Current (mA)
AREA	QUANT	1.00000E+000	Sample Area (cm^2)
EQDELAY	QUANT	0.00000E+000	Equil. Time (s)
IRCOMP	SELECTOR	0	IRComp
PFCOR	QUANT	5.00000E+001	PF Corr. (ohm)
SAMPLINGMODE	SELECTOR	2	Sampling Mode
EOC	QUANT	0.3246219	Open Circuit (V)
ELECTRODETYPE	SELECTOR	0	Electrode Type
STRIPPING	TOGGLE	F	Used for Stripping
SEQUENCER	TOGGLE	TRUE	Run as Sequence
PSTATMODEL	IQUANT	64	Pstat Model
PSTATSECTION	LABEL	IFC1010-36068	Pstat Section
PSTATSERIALNO	LABEL	36068	Pstat Serial Number
CTRLMODE	IQUANT	1	Control Mode
ELECTROMETER	IQUANT	0	RE=0 or CS=1
IESTAB	IQUANT	2	I/E Stability
CASPEED	IQUANT	4	Control Amp Speed
CONVENTION	IQUANT	1	Current Convention
ICHRANGE	IQUANT	2	Ich Range
ICHRANGEMODE	TOGGLE	F	Ich Auto Range
ICHOFFSETENABLE	TOGGLE	F	Ich Offset Enable
ICHOFFSET	QUANT	0	Ich Offset (V)
ICHFILTER	IQUANT	3	Ich Filter
VCHRANGE	IQUANT	2	Vch Range
VCHRANGEMODE	TOGGLE	F	Vch Auto Range
VCHOFFSETENABLE	TOGGLE	F	Vch Offset Enable
VCHOFFSET	QUANT	0	Vch Offset (V)
VCHFILTER	IQUANT	3	Vch Filter
IERANGELOWERLIMIT	IQUANT	4	I/E Range Lower Limit
IERANGEMODE	TOGGLE	F	I/E AutoRange
IERANGE	IQUANT	9	I/E Range
ACHSELECT	IQUANT	0	Ach Select
ACHRANGE	IQUANT	2	Ach Range
ACHOFFSETENABLE	TOGGLE	F	Ach Offset Enable
ACHOFFSET	QUANT	0	Ach Offset (V)
ACHFILTER	IQUANT	1	Ach Filter
SENSECABLEID	IQUANT	13	Sense Cable ID
PWRCABLEID	IQUANT	13	Power Cable ID
DCCALDATE	LABEL	8/11/2023	DC Calibration Date
ACCALDATE	LABEL	6/2/2023	AC Calibration Date
FRAMEWORKVERSION	LABEL	7.10.3	Framework Version
INSTRUMENTVERSION	LABEL	4.91	Instrument Version
COMMVERSION	LABEL	3.10	Communications Version
CPUPLDVERSION	LABEL	2.22	CPU PLD Version
CTRLPLDVERSION	LABEL	0.00	CTRL PLD Version
PSTATPLDVERSION	LABEL	0.00	PSTAT PLD Version
CURVE1	TABLE
	Pt	T	Vf	Im	Vu	Sig	Ach	IERange	Over	Temp
	#	s	V vs. Ref.	A	V	V	V	#	bits	deg C
	0	0.01	9.99883E-002	-1.06016E-005	0.00000E+000	1.00003E-001	0.00000E+000	9	...........	1467.61
	4	0.05	1.03976E-001	-8.22353E-006	0.00000E+000	1.04002E-001	0.00000E+000	9	...........	1467.61
	8	0.09	1.07959E-001	-7.50865E-006	0.00000E+000	1.08000E-001	0.00000E+000	9	...........	1467.61
	12	0.13	1.11954E-001	-6.90021E-006	0.00000E+000	1.11999E-001	0.00000E+000	9	...........	1467.61
	16	0.17	1.15971E-001	-6.35793E-006	0.00000E+000	1.15997E-001	0.00000E+000	9	...........	1467.61
	20	0.21	1.19975E-001	-5.84597E-006	0.00000E+000	1.19996E-001	0.00000E+000	9	...........	1467.61
	24	0.25	1.23966E-001	-5.37341E-006	0.00000E+000	1.23995E-001	0.00000E+000	9	...........	1467.61
	28	0.29	1.27974E-001	-4.93680E-006	0.00000E+000	1.27993E-001	0.00000E+000	9	...........	1467.61
	32	0.33	1.31967E-001	-4.51613E-006	0.00000E+000	1.31979E-001	0.00000E+000	9	...........	1467.61
	36	0.37	1.35951E-001	-4.13654E-006	0.00000E+000	1.35978E-001	0.00000E+000	9	...........	1467.61
	40	0.41	1.39940E-001	-3.75912E-006	0.00000E+000	1.39977E-001	0.00000E+000	9	...........	1467.61
	44	0.45	1.43948E-001	-3.40989E-006	0.00000E+000	1.43975E-001	0.00000E+000	9	...........	1467.61
	48	0.49	1.47944E-001	-3.07762E-006	0.00000E+000	1.47974E-001	0.00000E+000	9	...........	1467.61
	52	0.53	1.51918E-001	-2.75470E-006	0.00000E+000	1.51972E-001	0.00000E+000	9	...........	1467.61
	56	0.57	1.55938E-001	-2.44784E-006	0.00000E+000	1.55971E-001	0.00000E+000	9	...........	1467.61
	60	0.61	1.59930E-001	-2.16377E-006	0.00000E+000	1.59970E-001	0.00000E+000	9	...........	1467.61
	64	0.65	1.63935E-001	-1.87947E-006	0.00000E+000	1.63968E-001	0.00000E+000	9	...........	1467.61
	68	0.69	1.67949E-001	-1.61664E-006	0.00000E+000	1.67967E-001	0.00000E+000	9	...........	1467.61
	72	0.73	1.71935E-001	-1.36656E-006	0.00000E+000	1.71965E-001	0.00000E+000	9	...........	1467.61
	76	0.77	1.75936E-001	-1.10752E-006	0.00000E+000	1.75964E-001	0.00000E+000	9	...........	1467.61
	80	0.81	1.79925E-001	-8.66585E-007	0.00000E+000	1.79963E-001	0.00000E+000	9	...........	1467.61
	84	0.85	1.83923E-001	-6.28384E-007	0.00000E+000	1.83961E-001	0.00000E+000	9	...........	1467.61
	88	0.89	1.87918E-001	-3.97260E-007	0.00000E+000	1.87960E-001	0.00000E+000	9	...........	1467.61
	92	0.93	1.91941E-001	-1.80961E-007	0.00000E+000	1.91958E-001	0.00000E+000	9	...........	1467.61
	96	0.97	1.95914E-001	3.50035E-008	0.00000E+000	1.95957E-001	0.00000E+000	9	...........	1467.61
	100	1.01	1.99921E-001	2.35586E-007	0.00000E+000	1.99956E-001	0.00000E+000	9	...........	1467.61
	104	1.05	2.03903E-001	4.51717E-007	0.00000E+000	2.03954E-001	0.00000E+000	9	...........	1467.61
	108	1.09	2.07918E-001	6.43327E-007	0.00000E+000	2.07953E-001	0.00000E+000	9	...........	1467.61
	112	1.13	2.11913E-001	8.26687E-007	0.00000E+000	2.11951E-001	0.00000E+000	9	...........	1467.61
	116	1.17	2.15891E-001	1.01902E-006	0.00000E+000	2.15950E-001	0.00000E+000	9	...........	1467.61
	120	1.21	2.19918E-001	1.19564E-006	0.00000E+000	2.19949E-001	0.00000E+000	9	...........	1467.61
	124	1.25	2.23916E-001	1.37538E-006	0.00000E+000	2.23947E-001	0.00000E+000	9	...........	1467.61
	128	1.29	2.27900E-001	1.53522E-006	0.00000E+000	2.27946E-001	0.00000E+000	9	...........	1467.61
	132	1.33	2.31910E-001	1.69523E-006	0.00000E+000	2.31945E-001	0.00000E+000	9	...........	1467.61
	136	1.37	2.35887E-001	1.85758E-006	0.00000E+000	2.35943E-001	0.00000E+000	9	...........	1467.61
	140	1.41	2.39891E-001	2.00666E-006	0.00000E+000	2.39942E-001	0.00000E+000	9	...........	1467.61
	144	1.45	2.43900E-001	2.14388E-006	0.00000E+000	2.43940E-001	0.00000E+000	9	...........	1467.61
	148	1.49	2.47889E-001	2.29045E-006	0.00000E+000	2.47939E-001	0.00000E+000	9	...........	1467.61
	152	1.53	2.51890E-001	2.42588E-006	0.00000E+000	2.51938E-001	0.00000E+000	9	...........	1467.61
	156	1.57	2.55879E-001	2.56516E-006	0.00000E+000	2.55924E-001	0.00000E+000	9	...........	1467.61
	160	1.61	2.59881E-001	2.70382E-006	0.00000E+000	2.59922E-001	0.00000E+000	9	...........	1467.61
	164	1.65	2.63875E-001	2.83463E-006	0.00000E+000	2.63921E-001	0.00000E+000	9	...........	1467.61
	168	1.69	2.67860E-001	2.98042E-006	0.00000E+000	2.67919E-001	0.00000E+000	9	...........	1467.61
	172	1.73	2.71884E-001	3.11429E-006	0.00000E+000	2.71918E-001	0.00000E+000	9	...........	1467.61
	176	1.77	2.75881E-001	3.24014E-006	0.00000E+000	2.75917E-001	0.00000E+000	9	...........	1467.61
	180	1.81	2.79862E-001	3.37440E-006	0.00000E+000	2.79915E-001	0.00000E+000	9	...........	1467.61
	184	1.85	2.83888E-001	3.50571E-006	0.00000E+000	2.83914E-001	0.00000E+000	9	...........	1467.61
	188	1.89	2.87868E-001	3.64286E-006	0.00000E+000	2.87912E-001	0.00000E+000	9	...........	1467.61
	192	1.93	2.91864E-001	3.78398E-006	0.00000E+000	2.91911E-001	0.00000E+000	9	...........	1467.61
	196	1.97	2.95881E-001	3.91356E-006	0.00000E+000	2.95910E-001	0.00000E+000	9	...........	1467.61
	200	2.01	2.99868E-001	4.06275E-006	0.00000E+000	2.99908E-001	0.00000E+000	9	...........	1467.61
[...]
	1069	10.7	2.30963E-001	-2.97958E-006	0.00000E+000	2.30945E-001	0.00000E+000	9	...........	1467.43
	1073	10.74	2.26945E-001	-3.16461E-006	0.00000E+000	2.26946E-001	0.00000E+000	9	...........	1467.43
	1077	10.78	2.22960E-001	-3.35149E-006	0.00000E+000	2.22948E-001	0.00000E+000	9	...........	1467.43
	1081	10.82	2.18959E-001	-3.54276E-006	0.00000E+000	2.18949E-001	0.00000E+000	9	...........	1467.43
	1085	10.86	2.14949E-001	-3.74000E-006	0.00000E+000	2.14950E-001	0.00000E+000	9	...........	1467.43
	1089	10.9	2.10957E-001	-3.93975E-006	0.00000E+000	2.10952E-001	0.00000E+000	9	...........	1467.43
	1093	10.94	2.06951E-001	-4.14746E-006	0.00000E+000	2.06953E-001	0.00000E+000	9	...........	1467.43
	1097	10.98	2.02957E-001	-4.36309E-006	0.00000E+000	2.02955E-001	0.00000E+000	9	...........	1467.43
	1101	11.02	1.98984E-001	-4.58262E-006	0.00000E+000	1.98956E-001	0.00000E+000	9	...........	1467.43
	1105	11.06	1.94978E-001	-4.81503E-006	0.00000E+000	1.94957E-001	0.00000E+000	9	...........	1467.43
	1109	11.1	1.90957E-001	-5.05518E-006	0.00000E+000	1.90959E-001	0.00000E+000	9	...........	1467.43
	1113	11.14	1.86968E-001	-5.30079E-006	0.00000E+000	1.86960E-001	0.00000E+000	9	...........	1467.43
	1117	11.18	1.82970E-001	-5.55973E-006	0.00000E+000	1.82962E-001	0.00000E+000	9	...........	1467.43
	1121	11.22	1.78951E-001	-5.80529E-006	0.00000E+000	1.78963E-001	0.00000E+000	9	...........	1467.43
	1125	11.26	1.74959E-001	-6.06205E-006	0.00000E+000	1.74964E-001	0.00000E+000	9	...........	1467.43
	1129	11.3	1.70962E-001	-6.32778E-006	0.00000E+000	1.70966E-001	0.00000E+000	9	...........	1467.43
	1133	11.34	1.66980E-001	-6.59430E-006	0.00000E+000	1.66967E-001	0.00000E+000	9	...........	1467.43
	1137	11.38	1.62970E-001	-6.87402E-006	0.00000E+000	1.62969E-001	0.00000E+000	9	...........	1467.43
	1141	11.42	1.58967E-001	-7.15675E-006	0.00000E+000	1.58970E-001	0.00000E+000	9	...........	1467.43
	1145	11.46	1.54983E-001	-7.43698E-006	0.00000E+000	1.54971E-001	0.00000E+000	9	...........	1467.43
	1149	11.5	1.50968E-001	-7.72595E-006	0.00000E+000	1.50973E-001	0.00000E+000	9	...........	1467.43
	1153	11.54	1.46988E-001	-8.01392E-006	0.00000E+000	1.46974E-001	0.00000E+000	9	...........	1467.43
	1157	11.58	1.42988E-001	-8.32641E-006	0.00000E+000	1.42976E-001	0.00000E+000	9	...........	1467.43
	1161	11.62	1.38979E-001	-8.63439E-006	0.00000E+000	1.38977E-001	0.00000E+000	9	...........	1467.43
	1165	11.66	1.34989E-001	-8.94984E-006	0.00000E+000	1.34978E-001	0.00000E+000	9	...........	1467.43
	1169	11.7	1.31005E-001	-9.28613E-006	0.00000E+000	1.30980E-001	0.00000E+000	9	...........	1467.43
	1173	11.74	1.26992E-001	-9.61529E-006	0.00000E+000	1.26994E-001	0.00000E+000	9	...........	1467.43
	1177	11.78	1.23001E-001	-9.96262E-006	0.00000E+000	1.22995E-001	0.00000E+000	9	...........	1467.43
	1181	11.82	1.19015E-001	-1.03263E-005	0.00000E+000	1.18996E-001	0.00000E+000	9	...........	1467.43
	1185	11.86	1.15006E-001	-1.06919E-005	0.00000E+000	1.14998E-001	0.00000E+000	9	...........	1467.43
	1189	11.9	1.11002E-001	-1.10802E-005	0.00000E+000	1.10999E-001	0.00000E+000	9	...........	1467.43
	1193	11.94	1.07009E-001	-1.14783E-005	0.00000E+000	1.07001E-001	0.00000E+000	9	...........	1467.43
	1197	11.98	1.03031E-001	-1.18721E-005	0.00000E+000	1.03002E-001	0.00000E+000	9	...........	1467.43
	1200	12.01	1.00017E-001	-1.21406E-005	0.00000E+000	1.00003E-001	0.00000E+000	9	...........	1467.43
CURVE4	TABLE
	Pt	T	Vf	Im	Vu	Sig	Ach	IERange	Over	Temp
	#	s	V vs. Ref.	A	V	V	V	#	bits	deg C
	1201	12.02	9.99903E-002	-1.08463E-005	0.00000E+000	1.00003E-001	0.00000E+000	9	...........	1467.43