Folder: gamry_post_processing_/input/ECSA_test (part 3)

File: CV_ECSA_#1_#5.DTA
EXPLAIN
TAG	CV
TITLE	LABEL	ECSA	Test Identifier
DATE	LABEL	2/13/2024	Date
TIME	LABEL	8:49:11	Time
NOTES	NOTES	1	Notes...

PSTAT	PSTAT	IFC1010-36068	Potentiostat
VINIT	POTEN	1.00000E-001	F	Initial E (V)
VLIMIT1	POTEN	3.00000E-001	F	Scan Limit 1 (V)
VLIMIT2	POTEN	1.00000E-001	F	Scan Limit 2 (V)
VFINAL	POTEN	1.00000E-001	F	Final E (V)
SCANRATE	QUANT	4.99999E+001	A Real Number
STEPSIZE	QUANT	1.00000E+000	Step Size (mV)
CYCLES	IQUANT	3	Cycles (#)
IMODE	SELECTOR	1	I/E Range Mode
IRANGE	QUANT	3.00000E-001	Max Current (mA)
AREA	QUANT	1.00000E+000	Sample Area (cm^2)
EQDELAY	QUANT	0.00000E+000	Equil. Time (s)
IRCOMP	SELECTOR	0	IRComp
PFCOR	QUANT	5.00000E+001	PF Corr. (ohm)
SAMPLINGMODE	SELECTOR	2	Sampling Mode
EOC	QUANT	0.3246219	Open Circuit (V)
ELECTRODETYPE	SELECTOR	0	Electrode Type
STRIPPING	TOGGLE	F	Used for Stripping
SEQUENCER	TOGGLE	TRUE	Run as Sequence
PSTATMODEL	IQUANT	64	Pstat Model
PSTATSECTION	LABEL	IFC1010-36068	Pstat Section
PSTATSERIALNO	LABEL	36068	Pstat Serial Number
CTRLMODE	IQUANT	1	Control Mode
ELECTROMETER	IQUANT	0	RE=0 or CS=1
IESTAB	IQUANT	2	I/E Stability
CASPEED	IQUANT	4	Control Amp Speed
CONVENTION	IQUANT	1	Current Convention
ICHRANGE	IQUANT	2	Ich Range
ICHRANGEMODE	TOGGLE	F	Ich Auto Range
ICHOFFSETENABLE	TOGGLE	F	Ich Offset Enable
ICHOFFSET	QUANT	0	Ich Offset (V)
ICHFILTER	IQUANT	3	Ich Filter
VCHRANGE	IQUANT	2	Vch Range
VCHRANGEMODE	TOGGLE	F	Vch Auto Range
VCHOFFSETENABLE	TOGGLE	F	Vch Offset Enable
VCHOFFSET	QUANT	0	Vch Offset (V)
VCHFILTER	IQUANT	3	Vch Filter
IERANGELOWERLIMIT	IQUANT	4	I/E Range Lower Limit
IERANGEMODE	TOGGLE	F	I/E AutoRange
IERANGE	IQUANT	9	I/E Range
ACHSELECT	IQUANT	0	Ach Select
ACHRANGE	IQUANT	2	Ach Range
ACHOFFSETENABLE	TOGGLE	F	Ach Offset Enable
ACHOFFSET	QUANT	0	Ach Offset (V)
ACHFILTER	IQUANT	1	Ach Filter
SENSECABLEID	IQUANT	13	Sense Cable ID
PWRCABLEID	IQUANT	13	Power Cable ID
DCCALDATE	LABEL	8/11/2023	DC Calibration Date
ACCALDATE	LABEL	6/2/2023	AC Calibration Date
FRAMEWORKVERSION	LABEL	7.10.3	Framework Version
INSTRUMENTVERSION	LABEL	4.91	Instrument Version
COMMVERSION	LABEL	3.10	Communications Version
CPUPLDVERSION	LABEL	2.22	CPU PLD Version
CTRLPLDVERSION	LABEL	0.00	CTRL PLD Version
PSTATPLDVERSION	LABEL	0.00	PSTAT PLD Version
CURVE1	TABLE
	Pt	T	Vf	Im	Vu	Sig	Ach	IERange	Over	Temp
	#	s	V vs. Ref.	A	V	V	V	#	bits	deg C
	0	0.02	9.99989E-002	-1.00588E-005	0.00000E+000	1.00003E-001	0.00000E+000	9	...........	1467.52
	4	0.1	1.03989E-001	-8.45553E-006	0.00000E+000	1.04002E-001	0.00000E+000	9	...........	1467.52
	8	0.18	1.07978E-001	-7.84277E-006	0.00000E+000	1.08000E-001	0.00000E+000	9	...........	1467.52
	12	0.26	1.11969E-001	-7.29205E-006	0.00000E+000	1.11999E-001	0.00000E+000	9	...........	1467.52
	16	0.34	1.15991E-001	-6.79953E-006	0.00000E+000	1.15997E-001	0.00000E+000	9	...........	1467.52
	20	0.42	1.19984E-001	-6.33438E-006	0.00000E+000	1.19996E-001	0.00000E+000	9	...........	1467.52
	24	0.5	1.23974E-001	-5.91263E-006	0.00000E+000	1.23995E-001	0.00000E+000	9	...........	1467.52
	28	0.58	1.27988E-001	-5.51066E-006	0.00000E+000	1.28006E-001	0.00000E+000	9	...........	1467.52
	32	0.66	1.31996E-001	-5.13540E-006	0.00000E+000	1.32004E-001	0.00000E+000	9	...........	1467.52
	36	0.74	1.35973E-001	-4.77875E-006	0.00000E+000	1.36003E-001	0.00000E+000	9	...........	1467.52
	40	0.82	1.39968E-001	-4.44263E-006	0.00000E+000	1.40002E-001	0.00000E+000	9	...........	1467.52
	44	0.9	1.43983E-001	-4.12504E-006	0.00000E+000	1.44000E-001	0.00000E+000	9	...........	1467.52
	48	0.98	1.47983E-001	-3.82734E-006	0.00000E+000	1.47999E-001	0.00000E+000	9	...........	1467.52
	52	1.06	1.51966E-001	-3.54085E-006	0.00000E+000	1.51997E-001	0.00000E+000	9	...........	1467.52
	56	1.14	1.55980E-001	-3.26107E-006	0.00000E+000	1.55996E-001	0.00000E+000	9	...........	1467.52
	60	1.22	1.59965E-001	-2.99522E-006	0.00000E+000	1.59995E-001	0.00000E+000	9	...........	1467.52
	64	1.3	1.63982E-001	-2.73015E-006	0.00000E+000	1.64006E-001	0.00000E+000	9	...........	1467.52
	68	1.38	1.67993E-001	-2.47819E-006	0.00000E+000	1.68004E-001	0.00000E+000	9	...........	1467.52
	72	1.46	1.71983E-001	-2.23396E-006	0.00000E+000	1.72003E-001	0.00000E+000	9	...........	1467.52
	76	1.54	1.75974E-001	-2.00096E-006	0.00000E+000	1.76002E-001	0.00000E+000	9	...........	1467.52
	80	1.62	1.79976E-001	-1.77515E-006	0.00000E+000	1.80000E-001	0.00000E+000	9	...........	1467.52
	84	1.7	1.83982E-001	-1.54914E-006	0.00000E+000	1.83999E-001	0.00000E+000	9	...........	1467.52
	88	1.78	1.87973E-001	-1.33112E-006	0.00000E+000	1.87997E-001	0.00000E+000	9	...........	1467.61
	92	1.86	1.91994E-001	-1.11602E-006	0.00000E+000	1.91996E-001	0.00000E+000	9	...........	1467.61
	96	1.94	1.95977E-001	-9.21749E-007	0.00000E+000	1.95995E-001	0.00000E+000	9	...........	1467.61
	100	2.02	1.99984E-001	-7.17830E-007	0.00000E+000	2.00006E-001	0.00000E+000	9	...........	1467.61
	104	2.1	2.03973E-001	-5.27013E-007	0.00000E+000	2.04004E-001	0.00000E+000	9	...........	1467.61
	108	2.18	2.07982E-001	-3.35001E-007	0.00000E+000	2.08003E-001	0.00000E+000	9	...........	1467.61
	112	2.26	2.11974E-001	-1.60097E-007	0.00000E+000	2.12001E-001	0.00000E+000	9	...........	1467.61
	116	2.34	2.15962E-001	1.88123E-008	0.00000E+000	2.16000E-001	0.00000E+000	9	...........	1467.61
	120	2.42	2.19970E-001	1.81837E-007	0.00000E+000	2.19999E-001	0.00000E+000	9	...........	1467.61
	124	2.5	2.23973E-001	3.44416E-007	0.00000E+000	2.23997E-001	0.00000E+000	9	...........	1467.61
	128	2.58	2.27962E-001	5.06300E-007	0.00000E+000	2.27996E-001	0.00000E+000	9	...........	1467.61
	132	2.66	2.31964E-001	6.58669E-007	0.00000E+000	2.31994E-001	0.00000E+000	9	...........	1467.61
	136	2.74	2.35963E-001	8.09703E-007	0.00000E+000	2.36006E-001	0.00000E+000	9	...........	1467.61
	140	2.82	2.39979E-001	9.46771E-007	0.00000E+000	2.40004E-001	0.00000E+000	9	...........	1467.61
	144	2.9	2.43985E-001	1.08932E-006	0.00000E+000	2.44003E-001	0.00000E+000	9	...........	1467.61
	148	2.98	2.47960E-001	1.22350E-006	0.00000E+000	2.48001E-001	0.00000E+000	9	...........	1467.61
	152	3.06	2.51959E-001	1.35027E-006	0.00000E+000	2.52000E-001	0.00000E+000	9	...........	1467.61
	156	3.14	2.55966E-001	1.48275E-006	0.00000E+000	2.55999E-001	0.00000E+000	9	...........	1467.61
	160	3.22	2.59971E-001	1.59965E-006	0.00000E+000	2.59997E-001	0.00000E+000	9	...........	1467.61
	164	3.3	2.63972E-001	1.72667E-006	0.00000E+000	2.63996E-001	0.00000E+000	9	...........	1467.61
	168	3.38	2.67955E-001	1.84538E-006	0.00000E+000	2.67994E-001	0.00000E+000	9	...........	1467.61
	172	3.46	2.71982E-001	1.97001E-006	0.00000E+000	2.72006E-001	0.00000E+000	9	...........	1467.61
	176	3.54	2.75976E-001	2.08588E-006	0.00000E+000	2.76004E-001	0.00000E+000	9	...........	1467.61
	180	3.62	2.79962E-001	2.21018E-006	0.00000E+000	2.80003E-001	0.00000E+000	9	...........	1467.61
	184	3.7	2.83984E-001	2.32858E-006	0.00000E+000	2.84001E-001	0.00000E+000	9	...........	1467.61
	188	3.78	2.87980E-001	2.44534E-006	0.00000E+000	2.88000E-001	0.00000E+000	9	...........	1467.70
	192	3.86	2.91963E-001	2.56853E-006	0.00000E+000	2.91999E-001	0.00000E+000	9	...........	1467.70
	196	3.94	2.95973E-001	2.68220E-006	0.00000E+000	2.95997E-001	0.00000E+000	9	...........	1467.70
	200	4.02	2.99969E-001	2.80542E-006	0.00000E+000	2.99996E-001	0.00000E+000	9	...........	1467.70
[...]
	1069	21.4	2.31000E-001	-2.26937E-006	0.00000E+000	2.30995E-001	0.00000E+000	9	...........	1467.52
	1073	21.48	2.26987E-001	-2.45301E-006	0.00000E+000	2.26996E-001	0.00000E+000	9	...........	1467.52
	1077	21.56	2.22998E-001	-2.63189E-006	0.00000E+000	2.22998E-001	0.00000E+000	9	...........	1467.52
	1081	21.64	2.18992E-001	-2.82432E-006	0.00000E+000	2.18999E-001	0.00000E+000	9	...........	1467.52
	1085	21.72	2.14973E-001	-3.01105E-006	0.00000E+000	2.15000E-001	0.00000E+000	9	...........	1467.52
	1089	21.8	2.10987E-001	-3.21533E-006	0.00000E+000	2.11002E-001	0.00000E+000	9	...........	1467.43
	1093	21.88	2.06985E-001	-3.42551E-006	0.00000E+000	2.07003E-001	0.00000E+000	9	...........	1467.43
	1097	21.96	2.02997E-001	-3.62971E-006	0.00000E+000	2.03005E-001	0.00000E+000	9	...........	1467.43
	1101	22.04	1.99019E-001	-3.84267E-006	0.00000E+000	1.99006E-001	0.00000E+000	9	...........	1467.43
	1105	22.12	1.95011E-001	-4.06856E-006	0.00000E+000	1.94995E-001	0.00000E+000	9	...........	1467.43
	1109	22.2	1.90973E-001	-4.29697E-006	0.00000E+000	1.90996E-001	0.00000E+000	9	...........	1467.43
	1113	22.28	1.86992E-001	-4.54072E-006	0.00000E+000	1.86998E-001	0.00000E+000	9	...........	1467.43
	1117	22.36	1.83008E-001	-4.78139E-006	0.00000E+000	1.82999E-001	0.00000E+000	9	...........	1467.43
	1121	22.44	1.78989E-001	-5.02523E-006	0.00000E+000	1.79000E-001	0.00000E+000	9	...........	1467.43
	1125	22.52	1.75002E-001	-5.28068E-006	0.00000E+000	1.75002E-001	0.00000E+000	9	...........	1467.43
	1129	22.6	1.71004E-001	-5.53155E-006	0.00000E+000	1.71003E-001	0.00000E+000	9	...........	1467.43
	1133	22.68	1.67016E-001	-5.78680E-006	0.00000E+000	1.67005E-001	0.00000E+000	9	...........	1467.43
	1137	22.76	1.62985E-001	-6.05115E-006	0.00000E+000	1.63006E-001	0.00000E+000	9	...........	1467.70
	1141	22.84	1.58984E-001	-6.31783E-006	0.00000E+000	1.58995E-001	0.00000E+000	9	...........	1467.70
	1145	22.92	1.55000E-001	-6.58904E-006	0.00000E+000	1.54996E-001	0.00000E+000	9	...........	1467.70
	1149	23	1.50996E-001	-6.86746E-006	0.00000E+000	1.50998E-001	0.00000E+000	9	...........	1467.70
	1153	23.08	1.47008E-001	-7.13192E-006	0.00000E+000	1.46999E-001	0.00000E+000	9	...........	1467.70
	1157	23.16	1.43011E-001	-7.40992E-006	0.00000E+000	1.43001E-001	0.00000E+000	9	...........	1467.70
	1161	23.24	1.39011E-001	-7.69711E-006	0.00000E+000	1.39002E-001	0.00000E+000	9	...........	1467.70
	1165	23.32	1.34999E-001	-7.98866E-006	0.00000E+000	1.35003E-001	0.00000E+000	9	...........	1467.70
	1169	23.4	1.31015E-001	-8.28850E-006	0.00000E+000	1.31005E-001	0.00000E+000	9	...........	1467.70
	1173	23.48	1.26995E-001	-8.60237E-006	0.00000E+000	1.27006E-001	0.00000E+000	9	...........	1467.70
	1177	23.56	1.22985E-001	-8.93028E-006	0.00000E+000	1.22995E-001	0.00000E+000	9	...........	1467.70
	1181	23.64	1.19001E-001	-9.26175E-006	0.00000E+000	1.18996E-001	0.00000E+000	9	...........	1467.70
	1185	23.72	1.14994E-001	-9.60138E-006	0.00000E+000	1.14998E-001	0.00000E+000	9	...........	1467.70
	1189	23.8	1.10996E-001	-9.96637E-006	0.00000E+000	1.10999E-001	0.00000E+000	9	...........	1467.61
	1193	23.88	1.06998E-001	-1.03351E-005	0.00000E+000	1.07001E-001	0.00000E+000	9	...........	1467.61
	1197	23.96	1.03018E-001	-1.07008E-005	0.00000E+000	1.03002E-001	0.00000E+000	9	...........	1467.61
	1200	24.02	1.00006E-001	-1.09913E-005	0.00000E+000	1.00003E-001	0.00000E+000	9	...........	1467.61
CURVE4	TABLE
	Pt	T	Vf	Im	Vu	Sig	Ach	IERange	Over	Temp
	#	s	V vs. Ref.	A	V	V	V	#	bits	deg C
	1201	24.04	9.99959E-002	-1.02293E-005	0.00000E+000	1.00003E-001	0.00000E+000	9	...........	1467.61

File: CV_ECSA_#1_#6.DTA
EXPLAIN
TAG	CV
TITLE	LABEL	ECSA	Test Identifier
DATE	LABEL	2/13/2024	Date
TIME	LABEL	8:49:35	Time
NOTES	NOTES	1	Notes...

PSTAT	PSTAT	IFC1010-36068	Potentiostat
VINIT	POTEN	1.00000E-001	F	Initial E (V)
VLIMIT1	POTEN	3.00000E-001	F	Scan Limit 1 (V)
VLIMIT2	POTEN	1.00000E-001	F	Scan Limit 2 (V)
VFINAL	POTEN	1.00000E-001	F	Final E (V)
SCANRATE	QUANT	5.99999E+001	A Real Number
STEPSIZE	QUANT	1.00000E+000	Step Size (mV)
CYCLES	IQUANT	3	Cycles (#)
IMODE	SELECTOR	1	I/E Range Mode
IRANGE	QUANT	3.00000E-001	Max Current (mA)
AREA	QUANT	1.00000E+000	Sample Area (cm^2)
EQDELAY	QUANT	0.00000E+000	Equil. Time (s)
IRCOMP	SELECTOR	0	IRComp
PFCOR	QUANT	5.00000E+001	PF Corr. (ohm)
SAMPLINGMODE	SELECTOR	2	Sampling Mode
EOC	QUANT	0.3246219	Open Circuit (V)
ELECTRODETYPE	SELECTOR	0	Electrode Type
STRIPPING	TOGGLE	F	Used for Stripping
SEQUENCER	TOGGLE	TRUE	Run as Sequence
PSTATMODEL	IQUANT	64	Pstat Model
PSTATSECTION	LABEL	IFC1010-36068	Pstat Section
PSTATSERIALNO	LABEL	36068	Pstat Serial Number
CTRLMODE	IQUANT	1	Control Mode
ELECTROMETER	IQUANT	0	RE=0 or CS=1
IESTAB	IQUANT	2	I/E Stability
CASPEED	IQUANT	4	Control Amp Speed
CONVENTION	IQUANT	1	Current Convention
ICHRANGE	IQUANT	2	Ich Range
ICHRANGEMODE	TOGGLE	F	Ich Auto Range
ICHOFFSETENABLE	TOGGLE	F	Ich Offset Enable
ICHOFFSET	QUANT	0	Ich Offset (V)
ICHFILTER	IQUANT	3	Ich Filter
VCHRANGE	IQUANT	2	Vch Range
VCHRANGEMODE	TOGGLE	F	Vch Auto Range
VCHOFFSETENABLE	TOGGLE	F	Vch Offset Enable
VCHOFFSET	QUANT	0	Vch Offset (V)
VCHFILTER	IQUANT	3	Vch Filter
IERANGELOWERLIMIT	IQUANT	4	I/E Range Lower Limit
IERANGEMODE	TOGGLE	F	I/E AutoRange
IERANGE	IQUANT	9	I/E Range
ACHSELECT	IQUANT	0	Ach Select
ACHRANGE	IQUANT	2	Ach Range
ACHOFFSETENABLE	TOGGLE	F	Ach Offset Enable
ACHOFFSET	QUANT	0	Ach Offset (V)
ACHFILTER	IQUANT	1	Ach Filter
SENSECABLEID	IQUANT	13	Sense Cable ID
PWRCABLEID	IQUANT	13	Power Cable ID
DCCALDATE	LABEL	8/11/2023	DC Calibration Date
ACCALDATE	LABEL	6/2/2023	AC Calibration Date
FRAMEWORKVERSION	LABEL	7.10.3	Framework Version
INSTRUMENTVERSION	LABEL	4.91	Instrument Version
COMMVERSION	LABEL	3.10	Communications Version
CPUPLDVERSION	LABEL	2.22	CPU PLD Version
CTRLPLDVERSION	LABEL	0.00	CTRL PLD Version
PSTATPLDVERSION	LABEL	0.00	PSTAT PLD Version
CURVE1	TABLE
	Pt	T	Vf	Im	Vu	Sig	Ach	IERange	Over	Temp
	#	s	V vs. Ref.	A	V	V	V	#	bits	deg C
	0	0.016667	9.99906E-002	-1.01764E-005	0.00000E+000	1.00003E-001	0.00000E+000	9	...........	1467.61
	4	0.083333	1.03982E-001	-8.43720E-006	0.00000E+000	1.04002E-001	0.00000E+000	9	...........	1467.61
	8	0.15	1.07972E-001	-7.79315E-006	0.00000E+000	1.08000E-001	0.00000E+000	9	...........	1467.61
	12	0.216667	1.11965E-001	-7.22830E-006	0.00000E+000	1.11999E-001	0.00000E+000	9	...........	1467.61
	16	0.283333	1.15992E-001	-6.73199E-006	0.00000E+000	1.15997E-001	0.00000E+000	9	...........	1467.61
	20	0.35	1.19981E-001	-6.24906E-006	0.00000E+000	1.19996E-001	0.00000E+000	9	...........	1467.61
	24	0.416667	1.23955E-001	-5.80094E-006	0.00000E+000	1.23995E-001	0.00000E+000	9	...........	1467.61
	28	0.483333	1.27982E-001	-5.39806E-006	0.00000E+000	1.28006E-001	0.00000E+000	9	...........	1467.61
	32	0.55	1.31996E-001	-4.99729E-006	0.00000E+000	1.32004E-001	0.00000E+000	9	...........	1467.61
	36	0.616667	1.35980E-001	-4.63993E-006	0.00000E+000	1.36003E-001	0.00000E+000	9	...........	1467.61
	40	0.683333	1.39974E-001	-4.30060E-006	0.00000E+000	1.40002E-001	0.00000E+000	9	...........	1467.52
	44	0.75	1.43974E-001	-3.96905E-006	0.00000E+000	1.44000E-001	0.00000E+000	9	...........	1467.52
	48	0.816667	1.47981E-001	-3.65330E-006	0.00000E+000	1.47999E-001	0.00000E+000	9	...........	1467.52
	52	0.883333	1.51959E-001	-3.36591E-006	0.00000E+000	1.51997E-001	0.00000E+000	9	...........	1467.52
	56	0.95	1.55976E-001	-3.07390E-006	0.00000E+000	1.55996E-001	0.00000E+000	9	...........	1467.52
	60	1.01667	1.59960E-001	-2.79873E-006	0.00000E+000	1.59995E-001	0.00000E+000	9	...........	1467.52
	64	1.08333	1.63975E-001	-2.54088E-006	0.00000E+000	1.64006E-001	0.00000E+000	9	...........	1467.52
	68	1.15	1.67985E-001	-2.27750E-006	0.00000E+000	1.68004E-001	0.00000E+000	9	...........	1467.52
	72	1.21667	1.71974E-001	-2.02734E-006	0.00000E+000	1.72003E-001	0.00000E+000	9	...........	1467.52
	76	1.28333	1.75981E-001	-1.79581E-006	0.00000E+000	1.76002E-001	0.00000E+000	9	...........	1467.52
	80	1.35	1.79972E-001	-1.56108E-006	0.00000E+000	1.80000E-001	0.00000E+000	9	...........	1467.52
	84	1.41667	1.83984E-001	-1.32681E-006	0.00000E+000	1.83999E-001	0.00000E+000	9	...........	1467.52
	88	1.48333	1.87976E-001	-1.12043E-006	0.00000E+000	1.87997E-001	0.00000E+000	9	...........	1467.52
	92	1.55	1.91996E-001	-8.99989E-007	0.00000E+000	1.91996E-001	0.00000E+000	9	...........	1467.52
	96	1.61667	1.95967E-001	-6.95078E-007	0.00000E+000	1.95995E-001	0.00000E+000	9	...........	1467.52
	100	1.68333	1.99986E-001	-5.04760E-007	0.00000E+000	2.00006E-001	0.00000E+000	9	...........	1467.43
	104	1.75	2.03986E-001	-2.83251E-007	0.00000E+000	2.04004E-001	0.00000E+000	9	...........	1467.43
	108	1.81667	2.07973E-001	-1.03719E-007	0.00000E+000	2.08003E-001	0.00000E+000	9	...........	1467.43
	112	1.88333	2.11964E-001	6.20868E-008	0.00000E+000	2.12001E-001	0.00000E+000	9	...........	1467.43
	116	1.95	2.15951E-001	2.43088E-007	0.00000E+000	2.16000E-001	0.00000E+000	9	...........	1467.43
	120	2.01667	2.19970E-001	4.12868E-007	0.00000E+000	2.19999E-001	0.00000E+000	9	...........	1467.43
	124	2.08333	2.23978E-001	5.73598E-007	0.00000E+000	2.23997E-001	0.00000E+000	9	...........	1467.43
	128	2.15	2.27963E-001	7.55467E-007	0.00000E+000	2.27996E-001	0.00000E+000	9	...........	1467.43
	132	2.21667	2.31970E-001	9.02238E-007	0.00000E+000	2.31994E-001	0.00000E+000	9	...........	1467.43
	136	2.28333	2.35966E-001	1.04363E-006	0.00000E+000	2.36006E-001	0.00000E+000	9	...........	1467.43
	140	2.35	2.39980E-001	1.19939E-006	0.00000E+000	2.40004E-001	0.00000E+000	9	...........	1467.43
	144	2.41667	2.43996E-001	1.33066E-006	0.00000E+000	2.44003E-001	0.00000E+000	9	...........	1467.43
	148	2.48333	2.47969E-001	1.46030E-006	0.00000E+000	2.48001E-001	0.00000E+000	9	...........	1467.43
	152	2.55	2.51959E-001	1.59882E-006	0.00000E+000	2.52000E-001	0.00000E+000	9	...........	1467.43
	156	2.61667	2.55961E-001	1.73144E-006	0.00000E+000	2.55999E-001	0.00000E+000	9	...........	1467.43
	160	2.68333	2.59962E-001	1.85146E-006	0.00000E+000	2.59997E-001	0.00000E+000	9	...........	1467.52
	164	2.75	2.63959E-001	1.98454E-006	0.00000E+000	2.63996E-001	0.00000E+000	9	...........	1467.52
	168	2.81667	2.67938E-001	2.10816E-006	0.00000E+000	2.67994E-001	0.00000E+000	9	...........	1467.52
	172	2.88333	2.71974E-001	2.23042E-006	0.00000E+000	2.72006E-001	0.00000E+000	9	...........	1467.52
	176	2.95	2.75964E-001	2.36430E-006	0.00000E+000	2.76004E-001	0.00000E+000	9	...........	1467.52
	180	3.01667	2.79962E-001	2.47781E-006	0.00000E+000	2.80003E-001	0.00000E+000	9	...........	1467.52
	184	3.08333	2.83982E-001	2.59810E-006	0.00000E+000	2.84001E-001	0.00000E+000	9	...........	1467.52
	188	3.15	2.87979E-001	2.73546E-006	0.00000E+000	2.88000E-001	0.00000E+000	9	...........	1467.52
	192	3.21667	2.91961E-001	2.84292E-006	0.00000E+000	2.91999E-001	0.00000E+000	9	...........	1467.52
	196	3.28333	2.95982E-001	2.96100E-006	0.00000E+000	2.95997E-001	0.00000E+000	9	...........	1467.52
[...]
	1036	17.2833	2.63980E-001	-1.01711E-006	0.00000E+000	2.63996E-001	0.00000E+000	9	...........	1467.52
	1041	17.3667	2.58987E-001	-1.22846E-006	0.00000E+000	2.58998E-001	0.00000E+000	9	...........	1467.52
	1046	17.45	2.53976E-001	-1.42820E-006	0.00000E+000	2.53999E-001	0.00000E+000	9	...........	1467.52
	1051	17.5333	2.48993E-001	-1.63364E-006	0.00000E+000	2.49001E-001	0.00000E+000	9	...........	1467.52
	1056	17.6167	2.44007E-001	-1.84169E-006	0.00000E+000	2.44003E-001	0.00000E+000	9	...........	1467.52
	1061	17.7	2.38986E-001	-2.06130E-006	0.00000E+000	2.39005E-001	0.00000E+000	9	...........	1467.52
	1066	17.7833	2.33993E-001	-2.27820E-006	0.00000E+000	2.33994E-001	0.00000E+000	9	...........	1467.52
	1071	17.8667	2.28982E-001	-2.48395E-006	0.00000E+000	2.28996E-001	0.00000E+000	9	...........	1467.52
	1076	17.95	2.23993E-001	-2.70412E-006	0.00000E+000	2.23997E-001	0.00000E+000	9	...........	1467.52
	1081	18.0333	2.19000E-001	-2.94600E-006	0.00000E+000	2.18999E-001	0.00000E+000	9	...........	1467.52
	1086	18.1167	2.13982E-001	-3.19756E-006	0.00000E+000	2.14001E-001	0.00000E+000	9	...........	1467.52
	1091	18.2	2.08994E-001	-3.45150E-006	0.00000E+000	2.09003E-001	0.00000E+000	9	...........	1467.52
	1096	18.2833	2.04002E-001	-3.70667E-006	0.00000E+000	2.04004E-001	0.00000E+000	9	...........	1467.52
	1101	18.3667	1.99023E-001	-3.96822E-006	0.00000E+000	1.99006E-001	0.00000E+000	9	...........	1467.52
	1106	18.45	1.94018E-001	-4.25465E-006	0.00000E+000	1.93995E-001	0.00000E+000	9	...........	1467.52
	1111	18.5333	1.88990E-001	-4.55457E-006	0.00000E+000	1.88997E-001	0.00000E+000	9	...........	1467.52
	1116	18.6167	1.83996E-001	-4.86067E-006	0.00000E+000	1.83999E-001	0.00000E+000	9	...........	1467.52
	1121	18.7	1.78989E-001	-5.17581E-006	0.00000E+000	1.79000E-001	0.00000E+000	9	...........	1467.52
	1126	18.7833	1.73999E-001	-5.47944E-006	0.00000E+000	1.74002E-001	0.00000E+000	9	...........	1467.52
	1131	18.8667	1.69005E-001	-5.79800E-006	0.00000E+000	1.69004E-001	0.00000E+000	9	...........	1467.52
	1136	18.95	1.63998E-001	-6.13081E-006	0.00000E+000	1.64006E-001	0.00000E+000	9	...........	1467.52
	1141	19.0333	1.58984E-001	-6.47485E-006	0.00000E+000	1.58995E-001	0.00000E+000	9	...........	1467.52
	1146	19.1167	1.53993E-001	-6.82372E-006	0.00000E+000	1.53997E-001	0.00000E+000	9	...........	1467.52
	1151	19.2	1.48997E-001	-7.16636E-006	0.00000E+000	1.48998E-001	0.00000E+000	9	...........	1467.52
	1156	19.2833	1.44004E-001	-7.52385E-006	0.00000E+000	1.44000E-001	0.00000E+000	9	...........	1467.52
	1161	19.3667	1.38998E-001	-7.87887E-006	0.00000E+000	1.39002E-001	0.00000E+000	9	...........	1467.52
	1166	19.45	1.34001E-001	-8.25851E-006	0.00000E+000	1.34004E-001	0.00000E+000	9	...........	1467.52
	1171	19.5333	1.29016E-001	-8.65437E-006	0.00000E+000	1.29005E-001	0.00000E+000	9	...........	1467.52
	1176	19.6167	1.23990E-001	-9.07658E-006	0.00000E+000	1.23995E-001	0.00000E+000	9	...........	1467.66
	1181	19.7	1.19014E-001	-9.51149E-006	0.00000E+000	1.18996E-001	0.00000E+000	9	...........	1467.79
	1186	19.7833	1.13990E-001	-9.94054E-006	0.00000E+000	1.13998E-001	0.00000E+000	9	...........	1467.79
	1191	19.8667	1.09010E-001	-1.03968E-005	0.00000E+000	1.09000E-001	0.00000E+000	9	...........	1467.79
	1196	19.95	1.04025E-001	-1.08740E-005	0.00000E+000	1.04002E-001	0.00000E+000	9	...........	1467.79
	1200	20.0167	1.00023E-001	-1.12617E-005	0.00000E+000	1.00003E-001	0.00000E+000	9	...........	1467.79
CURVE4	TABLE
	Pt	T	Vf	Im	Vu	Sig	Ach	IERange	Over	Temp
	#	s	V vs. Ref.	A	V	V	V	#	bits	deg C
	1201	20.0333	9.99986E-002	-1.03797E-005	0.00000E+000	1.00003E-001	0.00000E+000	9	...........	1467.79