Folder: gamry_post_processing_/input/ECSA_test (part 9)

File: CV_ECSA_#2_#7.DTA
EXPLAIN
TAG	CV
TITLE	LABEL	ECSA	Test Identifier
DATE	LABEL	2/13/2024	Date
TIME	LABEL	12:05:09	Time
NOTES	NOTES	1	Notes...

PSTAT	PSTAT	IFC1010-36068	Potentiostat
VINIT	POTEN	1.00000E-001	F	Initial E (V)
VLIMIT1	POTEN	3.00000E-001	F	Scan Limit 1 (V)
VLIMIT2	POTEN	1.00000E-001	F	Scan Limit 2 (V)
VFINAL	POTEN	1.00000E-001	F	Final E (V)
SCANRATE	QUANT	6.99999E+001	A Real Number
STEPSIZE	QUANT	1.00000E+000	Step Size (mV)
CYCLES	IQUANT	3	Cycles (#)
IMODE	SELECTOR	1	I/E Range Mode
IRANGE	QUANT	3.00000E-001	Max Current (mA)
AREA	QUANT	1.00000E+000	Sample Area (cm^2)
EQDELAY	QUANT	0.00000E+000	Equil. Time (s)
IRCOMP	SELECTOR	0	IRComp
PFCOR	QUANT	5.00000E+001	PF Corr. (ohm)
SAMPLINGMODE	SELECTOR	2	Sampling Mode
EOC	QUANT	0.3246219	Open Circuit (V)
ELECTRODETYPE	SELECTOR	0	Electrode Type
STRIPPING	TOGGLE	F	Used for Stripping
SEQUENCER	TOGGLE	TRUE	Run as Sequence
PSTATMODEL	IQUANT	64	Pstat Model
PSTATSECTION	LABEL	IFC1010-36068	Pstat Section
PSTATSERIALNO	LABEL	36068	Pstat Serial Number
CTRLMODE	IQUANT	1	Control Mode
ELECTROMETER	IQUANT	0	RE=0 or CS=1
IESTAB	IQUANT	2	I/E Stability
CASPEED	IQUANT	4	Control Amp Speed
CONVENTION	IQUANT	1	Current Convention
ICHRANGE	IQUANT	2	Ich Range
ICHRANGEMODE	TOGGLE	F	Ich Auto Range
ICHOFFSETENABLE	TOGGLE	F	Ich Offset Enable
ICHOFFSET	QUANT	0	Ich Offset (V)
ICHFILTER	IQUANT	3	Ich Filter
VCHRANGE	IQUANT	2	Vch Range
VCHRANGEMODE	TOGGLE	F	Vch Auto Range
VCHOFFSETENABLE	TOGGLE	F	Vch Offset Enable
VCHOFFSET	QUANT	0	Vch Offset (V)
VCHFILTER	IQUANT	3	Vch Filter
IERANGELOWERLIMIT	IQUANT	4	I/E Range Lower Limit
IERANGEMODE	TOGGLE	F	I/E AutoRange
IERANGE	IQUANT	9	I/E Range
ACHSELECT	IQUANT	0	Ach Select
ACHRANGE	IQUANT	2	Ach Range
ACHOFFSETENABLE	TOGGLE	F	Ach Offset Enable
ACHOFFSET	QUANT	0	Ach Offset (V)
ACHFILTER	IQUANT	1	Ach Filter
SENSECABLEID	IQUANT	13	Sense Cable ID
PWRCABLEID	IQUANT	13	Power Cable ID
DCCALDATE	LABEL	8/11/2023	DC Calibration Date
ACCALDATE	LABEL	6/2/2023	AC Calibration Date
FRAMEWORKVERSION	LABEL	7.10.3	Framework Version
INSTRUMENTVERSION	LABEL	4.91	Instrument Version
COMMVERSION	LABEL	3.10	Communications Version
CPUPLDVERSION	LABEL	2.22	CPU PLD Version
CTRLPLDVERSION	LABEL	0.00	CTRL PLD Version
PSTATPLDVERSION	LABEL	0.00	PSTAT PLD Version
CURVE1	TABLE
	Pt	T	Vf	Im	Vu	Sig	Ach	IERange	Over	Temp
	#	s	V vs. Ref.	A	V	V	V	#	bits	deg C
	0	0.014283	9.99976E-002	-2.99024E-006	0.00000E+000	1.00003E-001	0.00000E+000	9	...........	1467.52
	5	0.0857	1.04983E-001	-1.38764E-006	0.00000E+000	1.05001E-001	0.00000E+000	9	...........	1467.52
	10	0.157117	1.09972E-001	-1.03873E-006	0.00000E+000	1.10000E-001	0.00000E+000	9	...........	1467.52
	15	0.228533	1.14976E-001	-7.23768E-007	0.00000E+000	1.14998E-001	0.00000E+000	9	...........	1467.52
	20	0.29995	1.19978E-001	-5.00645E-007	0.00000E+000	1.19996E-001	0.00000E+000	9	...........	1467.52
	25	0.371367	1.24966E-001	-2.48052E-007	0.00000E+000	1.24994E-001	0.00000E+000	9	...........	1467.52
	30	0.442783	1.29975E-001	-5.93484E-008	0.00000E+000	1.29993E-001	0.00000E+000	9	...........	1467.52
	35	0.5142	1.34964E-001	1.33059E-007	0.00000E+000	1.34991E-001	0.00000E+000	9	...........	1467.52
	40	0.585617	1.39951E-001	3.08119E-007	0.00000E+000	1.39989E-001	0.00000E+000	9	...........	1467.52
	45	0.657033	1.44960E-001	4.57258E-007	0.00000E+000	1.44987E-001	0.00000E+000	9	...........	1467.52
	50	0.72845	1.49957E-001	6.40816E-007	0.00000E+000	1.49986E-001	0.00000E+000	9	...........	1467.52
	55	0.799867	1.54971E-001	7.71128E-007	0.00000E+000	1.54996E-001	0.00000E+000	9	...........	1467.52
	60	0.871283	1.59962E-001	9.42368E-007	0.00000E+000	1.59995E-001	0.00000E+000	9	...........	1467.52
	65	0.9427	1.64950E-001	1.05514E-006	0.00000E+000	1.64993E-001	0.00000E+000	9	...........	1467.52
	70	1.01412	1.69977E-001	1.20350E-006	0.00000E+000	1.69991E-001	0.00000E+000	9	...........	1467.52
	75	1.08553	1.74963E-001	1.33338E-006	0.00000E+000	1.74989E-001	0.00000E+000	9	...........	1467.52
	80	1.15695	1.79959E-001	1.43812E-006	0.00000E+000	1.79988E-001	0.00000E+000	9	...........	1467.70
	85	1.22837	1.84959E-001	1.59069E-006	0.00000E+000	1.84986E-001	0.00000E+000	9	...........	1467.70
	90	1.29978	1.89952E-001	1.67574E-006	0.00000E+000	1.89984E-001	0.00000E+000	9	...........	1467.70
	95	1.3712	1.94959E-001	1.80906E-006	0.00000E+000	1.94982E-001	0.00000E+000	9	...........	1467.70
	100	1.44262	1.99953E-001	1.90023E-006	0.00000E+000	1.99981E-001	0.00000E+000	9	...........	1467.70
	105	1.51403	2.04953E-001	2.01982E-006	0.00000E+000	2.04979E-001	0.00000E+000	9	...........	1467.70
	110	1.58545	2.09937E-001	2.13981E-006	0.00000E+000	2.09977E-001	0.00000E+000	9	...........	1467.70
	115	1.65687	2.14929E-001	2.22794E-006	0.00000E+000	2.14975E-001	0.00000E+000	9	...........	1467.70
	120	1.72828	2.19935E-001	2.35587E-006	0.00000E+000	2.19974E-001	0.00000E+000	9	...........	1467.70
	125	1.7997	2.24942E-001	2.43282E-006	0.00000E+000	2.24984E-001	0.00000E+000	9	...........	1467.70
	130	1.87112	2.29946E-001	2.56200E-006	0.00000E+000	2.29983E-001	0.00000E+000	9	...........	1467.70
	135	1.94253	2.34946E-001	2.64538E-006	0.00000E+000	2.34981E-001	0.00000E+000	9	...........	1467.70
	140	2.01395	2.39944E-001	2.75515E-006	0.00000E+000	2.39979E-001	0.00000E+000	9	...........	1467.70
	145	2.08537	2.44955E-001	2.86047E-006	0.00000E+000	2.44977E-001	0.00000E+000	9	...........	1467.70
	150	2.15678	2.49948E-001	2.94600E-006	0.00000E+000	2.49976E-001	0.00000E+000	9	...........	1467.52
	155	2.2282	2.54921E-001	3.07787E-006	0.00000E+000	2.54974E-001	0.00000E+000	9	...........	1467.52
	160	2.29962	2.59936E-001	3.15567E-006	0.00000E+000	2.59972E-001	0.00000E+000	9	...........	1467.52
	165	2.37103	2.64918E-001	3.27920E-006	0.00000E+000	2.64970E-001	0.00000E+000	9	...........	1467.52
	170	2.44245	2.69947E-001	3.38889E-006	0.00000E+000	2.69969E-001	0.00000E+000	9	...........	1467.52
	175	2.51387	2.74930E-001	3.49207E-006	0.00000E+000	2.74967E-001	0.00000E+000	9	...........	1467.52
	180	2.58528	2.79919E-001	3.62429E-006	0.00000E+000	2.79965E-001	0.00000E+000	9	...........	1467.52
	185	2.6567	2.84943E-001	3.72326E-006	0.00000E+000	2.84963E-001	0.00000E+000	9	...........	1467.52
	190	2.72812	2.89941E-001	3.88823E-006	0.00000E+000	2.89974E-001	0.00000E+000	9	...........	1467.52
	195	2.79953	2.94959E-001	3.97083E-006	0.00000E+000	2.94973E-001	0.00000E+000	9	...........	1467.52
	200	2.87095	2.99941E-001	4.11888E-006	0.00000E+000	2.99971E-001	0.00000E+000	9	...........	1467.52
	205	2.94237	2.94997E-001	1.34570E-006	0.00000E+000	2.94973E-001	0.00000E+000	9	...........	1467.52
	210	3.01378	2.89972E-001	9.28686E-007	0.00000E+000	2.89974E-001	0.00000E+000	9	...........	1467.52
	215	3.0852	2.84969E-001	6.65218E-007	0.00000E+000	2.84963E-001	0.00000E+000	9	...........	1467.52
	220	3.15662	2.79952E-001	3.99294E-007	0.00000E+000	2.79965E-001	0.00000E+000	9	...........	1467.52
	225	3.22803	2.74953E-001	2.31523E-007	0.00000E+000	2.74967E-001	0.00000E+000	9	...........	1467.52
	230	3.29945	2.69982E-001	2.27052E-008	0.00000E+000	2.69969E-001	0.00000E+000	9	...........	1467.52
	235	3.37087	2.64965E-001	-1.26512E-007	0.00000E+000	2.64970E-001	0.00000E+000	9	...........	1467.52
	240	3.44228	2.59962E-001	-2.77249E-007	0.00000E+000	2.59972E-001	0.00000E+000	9	...........	1467.52
	245	3.5137	2.54944E-001	-4.28726E-007	0.00000E+000	2.54974E-001	0.00000E+000	9	...........	1467.52
[...]
	1036	14.8118	2.63962E-001	-1.68143E-007	0.00000E+000	2.63971E-001	0.00000E+000	9	...........	1467.52
	1041	14.8832	2.58966E-001	-3.33302E-007	0.00000E+000	2.58973E-001	0.00000E+000	9	...........	1467.52
	1046	14.9547	2.53950E-001	-4.58312E-007	0.00000E+000	2.53974E-001	0.00000E+000	9	...........	1467.52
	1051	15.0261	2.48964E-001	-6.12830E-007	0.00000E+000	2.48976E-001	0.00000E+000	9	...........	1467.52
	1056	15.0975	2.43984E-001	-7.14530E-007	0.00000E+000	2.43978E-001	0.00000E+000	9	...........	1467.52
	1061	15.1689	2.38975E-001	-8.62188E-007	0.00000E+000	2.38980E-001	0.00000E+000	9	...........	1467.52
	1066	15.2403	2.33987E-001	-9.87041E-007	0.00000E+000	2.33981E-001	0.00000E+000	9	...........	1467.52
	1071	15.3117	2.28973E-001	-1.09147E-006	0.00000E+000	2.28983E-001	0.00000E+000	9	...........	1467.52
	1076	15.3832	2.23992E-001	-1.23340E-006	0.00000E+000	2.23985E-001	0.00000E+000	9	...........	1467.52
	1081	15.4546	2.18971E-001	-1.32188E-006	0.00000E+000	2.18974E-001	0.00000E+000	9	...........	1467.52
	1086	15.526	2.13957E-001	-1.45940E-006	0.00000E+000	2.13976E-001	0.00000E+000	9	...........	1467.52
	1091	15.5974	2.08973E-001	-1.56321E-006	0.00000E+000	2.08978E-001	0.00000E+000	9	...........	1467.52
	1096	15.6688	2.03972E-001	-1.69906E-006	0.00000E+000	2.03979E-001	0.00000E+000	9	...........	1467.52
	1101	15.7402	1.99001E-001	-1.81202E-006	0.00000E+000	1.98981E-001	0.00000E+000	9	...........	1467.52
	1106	15.8117	1.94007E-001	-1.92370E-006	0.00000E+000	1.93983E-001	0.00000E+000	9	...........	1467.52
	1111	15.8831	1.88985E-001	-2.07370E-006	0.00000E+000	1.88984E-001	0.00000E+000	9	...........	1467.52
	1116	15.9545	1.83994E-001	-2.17777E-006	0.00000E+000	1.83986E-001	0.00000E+000	9	...........	1467.52
	1121	16.0259	1.78977E-001	-2.33522E-006	0.00000E+000	1.78988E-001	0.00000E+000	9	...........	1467.52
	1126	16.0973	1.73988E-001	-2.44187E-006	0.00000E+000	1.73990E-001	0.00000E+000	9	...........	1467.79
	1131	16.1687	1.69000E-001	-2.58134E-006	0.00000E+000	1.68991E-001	0.00000E+000	9	...........	1467.79
	1136	16.2402	1.63992E-001	-2.70697E-006	0.00000E+000	1.63993E-001	0.00000E+000	9	...........	1467.79
	1141	16.3116	1.58987E-001	-2.81795E-006	0.00000E+000	1.58995E-001	0.00000E+000	9	...........	1467.79
	1146	16.383	1.53989E-001	-2.98287E-006	0.00000E+000	1.53997E-001	0.00000E+000	9	...........	1467.79
	1151	16.4544	1.48987E-001	-3.09619E-006	0.00000E+000	1.48986E-001	0.00000E+000	9	...........	1467.79
	1156	16.5258	1.43995E-001	-3.25176E-006	0.00000E+000	1.43988E-001	0.00000E+000	9	...........	1467.79
	1161	16.5972	1.38994E-001	-3.36484E-006	0.00000E+000	1.38989E-001	0.00000E+000	9	...........	1467.79
	1166	16.6687	1.33989E-001	-3.50369E-006	0.00000E+000	1.33991E-001	0.00000E+000	9	...........	1467.79
	1171	16.7401	1.29008E-001	-3.63724E-006	0.00000E+000	1.28993E-001	0.00000E+000	9	...........	1467.79
	1176	16.8115	1.24000E-001	-3.75270E-006	0.00000E+000	1.23995E-001	0.00000E+000	9	...........	1467.79
	1181	16.8829	1.19008E-001	-3.91220E-006	0.00000E+000	1.18996E-001	0.00000E+000	9	...........	1467.79
	1186	16.9543	1.13984E-001	-4.02252E-006	0.00000E+000	1.13998E-001	0.00000E+000	9	...........	1467.79
	1191	17.0257	1.09001E-001	-4.19512E-006	0.00000E+000	1.09000E-001	0.00000E+000	9	...........	1467.79
	1196	17.0972	1.04018E-001	-4.31245E-006	0.00000E+000	1.04002E-001	0.00000E+000	9	...........	1467.52
	1200	17.1543	1.00014E-001	-4.41996E-006	0.00000E+000	1.00003E-001	0.00000E+000	9	...........	1467.52
CURVE4	TABLE
	Pt	T	Vf	Im	Vu	Sig	Ach	IERange	Over	Temp
	#	s	V vs. Ref.	A	V	V	V	#	bits	deg C
	1201	17.1686	9.99959E-002	-3.38098E-006	0.00000E+000	1.00003E-001	0.00000E+000	9	...........	1467.52

File: CV_ECSA_#2_#8.DTA
EXPLAIN
TAG	CV
TITLE	LABEL	ECSA	Test Identifier
DATE	LABEL	2/13/2024	Date
TIME	LABEL	12:05:26	Time
NOTES	NOTES	1	Notes...

PSTAT	PSTAT	IFC1010-36068	Potentiostat
VINIT	POTEN	1.00000E-001	F	Initial E (V)
VLIMIT1	POTEN	3.00000E-001	F	Scan Limit 1 (V)
VLIMIT2	POTEN	1.00000E-001	F	Scan Limit 2 (V)
VFINAL	POTEN	1.00000E-001	F	Final E (V)
SCANRATE	QUANT	8.00115E+001	A Real Number
STEPSIZE	QUANT	1.00000E+000	Step Size (mV)
CYCLES	IQUANT	3	Cycles (#)
IMODE	SELECTOR	1	I/E Range Mode
IRANGE	QUANT	3.00000E-001	Max Current (mA)
AREA	QUANT	1.00000E+000	Sample Area (cm^2)
EQDELAY	QUANT	0.00000E+000	Equil. Time (s)
IRCOMP	SELECTOR	0	IRComp
PFCOR	QUANT	5.00000E+001	PF Corr. (ohm)
SAMPLINGMODE	SELECTOR	2	Sampling Mode
EOC	QUANT	0.3246219	Open Circuit (V)
ELECTRODETYPE	SELECTOR	0	Electrode Type
STRIPPING	TOGGLE	F	Used for Stripping
SEQUENCER	TOGGLE	TRUE	Run as Sequence
PSTATMODEL	IQUANT	64	Pstat Model
PSTATSECTION	LABEL	IFC1010-36068	Pstat Section
PSTATSERIALNO	LABEL	36068	Pstat Serial Number
CTRLMODE	IQUANT	1	Control Mode
ELECTROMETER	IQUANT	0	RE=0 or CS=1
IESTAB	IQUANT	2	I/E Stability
CASPEED	IQUANT	4	Control Amp Speed
CONVENTION	IQUANT	1	Current Convention
ICHRANGE	IQUANT	2	Ich Range
ICHRANGEMODE	TOGGLE	F	Ich Auto Range
ICHOFFSETENABLE	TOGGLE	F	Ich Offset Enable
ICHOFFSET	QUANT	0	Ich Offset (V)
ICHFILTER	IQUANT	3	Ich Filter
VCHRANGE	IQUANT	2	Vch Range
VCHRANGEMODE	TOGGLE	F	Vch Auto Range
VCHOFFSETENABLE	TOGGLE	F	Vch Offset Enable
VCHOFFSET	QUANT	0	Vch Offset (V)
VCHFILTER	IQUANT	3	Vch Filter
IERANGELOWERLIMIT	IQUANT	4	I/E Range Lower Limit
IERANGEMODE	TOGGLE	F	I/E AutoRange
IERANGE	IQUANT	9	I/E Range
ACHSELECT	IQUANT	0	Ach Select
ACHRANGE	IQUANT	2	Ach Range
ACHOFFSETENABLE	TOGGLE	F	Ach Offset Enable
ACHOFFSET	QUANT	0	Ach Offset (V)
ACHFILTER	IQUANT	1	Ach Filter
SENSECABLEID	IQUANT	13	Sense Cable ID
PWRCABLEID	IQUANT	13	Power Cable ID
DCCALDATE	LABEL	8/11/2023	DC Calibration Date
ACCALDATE	LABEL	6/2/2023	AC Calibration Date
FRAMEWORKVERSION	LABEL	7.10.3	Framework Version
INSTRUMENTVERSION	LABEL	4.91	Instrument Version
COMMVERSION	LABEL	3.10	Communications Version
CPUPLDVERSION	LABEL	2.22	CPU PLD Version
CTRLPLDVERSION	LABEL	0.00	CTRL PLD Version
PSTATPLDVERSION	LABEL	0.00	PSTAT PLD Version
CURVE1	TABLE
	Pt	T	Vf	Im	Vu	Sig	Ach	IERange	Over	Temp
	#	s	V vs. Ref.	A	V	V	V	#	bits	deg C
	0	0.0125	9.99906E-002	-3.13224E-006	0.00000E+000	1.00003E-001	0.00000E+000	9	...........	1467.52
	4	0.0625	1.03978E-001	-1.50081E-006	0.00000E+000	1.04002E-001	0.00000E+000	9	...........	1467.52
	8	0.1125	1.07963E-001	-1.12734E-006	0.00000E+000	1.08000E-001	0.00000E+000	9	...........	1467.52
	12	0.1625	1.11956E-001	-8.98854E-007	0.00000E+000	1.11999E-001	0.00000E+000	9	...........	1467.52
	16	0.2125	1.15977E-001	-6.26392E-007	0.00000E+000	1.15997E-001	0.00000E+000	9	...........	1467.52
	20	0.2625	1.19986E-001	-4.48032E-007	0.00000E+000	1.20009E-001	0.00000E+000	9	...........	1467.52
	24	0.3125	1.23966E-001	-2.15804E-007	0.00000E+000	1.24007E-001	0.00000E+000	9	...........	1467.52
	28	0.3625	1.27980E-001	-7.98629E-008	0.00000E+000	1.28006E-001	0.00000E+000	9	...........	1467.52
	32	0.4125	1.31987E-001	1.24116E-007	0.00000E+000	1.32004E-001	0.00000E+000	9	...........	1467.52
	36	0.4625	1.35968E-001	2.45221E-007	0.00000E+000	1.36003E-001	0.00000E+000	9	...........	1467.52
	40	0.5125	1.39953E-001	4.28437E-007	0.00000E+000	1.40002E-001	0.00000E+000	9	...........	1467.52
	44	0.5625	1.43958E-001	5.25391E-007	0.00000E+000	1.44000E-001	0.00000E+000	9	...........	1467.52
	48	0.6125	1.47968E-001	6.99250E-007	0.00000E+000	1.48011E-001	0.00000E+000	9	...........	1467.52
	52	0.6625	1.51949E-001	7.82482E-007	0.00000E+000	1.52010E-001	0.00000E+000	9	...........	1467.52
	56	0.7125	1.55977E-001	9.46672E-007	0.00000E+000	1.56009E-001	0.00000E+000	9	...........	1467.52
	60	0.7625	1.59969E-001	1.03039E-006	0.00000E+000	1.60007E-001	0.00000E+000	9	...........	1467.52
	64	0.8125	1.63969E-001	1.18010E-006	0.00000E+000	1.64006E-001	0.00000E+000	9	...........	1467.52
	68	0.8625	1.67976E-001	1.26191E-006	0.00000E+000	1.68004E-001	0.00000E+000	9	...........	1467.52
	72	0.9125	1.71977E-001	1.39304E-006	0.00000E+000	1.72015E-001	0.00000E+000	9	...........	1467.52
	76	0.9625	1.75989E-001	1.47159E-006	0.00000E+000	1.76014E-001	0.00000E+000	9	...........	1467.52
	80	1.0125	1.79981E-001	1.61074E-006	0.00000E+000	1.80013E-001	0.00000E+000	9	...........	1467.52
	84	1.0625	1.83987E-001	1.67383E-006	0.00000E+000	1.84011E-001	0.00000E+000	9	...........	1467.52
	88	1.1125	1.87984E-001	1.80309E-006	0.00000E+000	1.88010E-001	0.00000E+000	9	...........	1467.52
	92	1.1625	1.92002E-001	1.86578E-006	0.00000E+000	1.92008E-001	0.00000E+000	9	...........	1467.52
	96	1.2125	1.96001E-001	1.99246E-006	0.00000E+000	1.96020E-001	0.00000E+000	9	...........	1467.52
	100	1.2625	1.99990E-001	2.05363E-006	0.00000E+000	2.00018E-001	0.00000E+000	9	...........	1467.52
	104	1.3125	2.03976E-001	2.18124E-006	0.00000E+000	2.04017E-001	0.00000E+000	9	...........	1467.52
	108	1.3625	2.07971E-001	2.23979E-006	0.00000E+000	2.08015E-001	0.00000E+000	9	...........	1467.52
	112	1.4125	2.11973E-001	2.35929E-006	0.00000E+000	2.12014E-001	0.00000E+000	9	...........	1467.52
	116	1.4625	2.15963E-001	2.41908E-006	0.00000E+000	2.16013E-001	0.00000E+000	9	...........	1467.52
	120	1.5125	2.19973E-001	2.53448E-006	0.00000E+000	2.20011E-001	0.00000E+000	9	...........	1467.52
	124	1.5625	2.23987E-001	2.59294E-006	0.00000E+000	2.24022E-001	0.00000E+000	9	...........	1467.52
	128	1.6125	2.27975E-001	2.70754E-006	0.00000E+000	2.28021E-001	0.00000E+000	9	...........	1467.52
	132	1.6625	2.31990E-001	2.76952E-006	0.00000E+000	2.32019E-001	0.00000E+000	9	...........	1467.52
	136	1.7125	2.35967E-001	2.86532E-006	0.00000E+000	2.36018E-001	0.00000E+000	9	...........	1467.52
	140	1.7625	2.39975E-001	2.93246E-006	0.00000E+000	2.40017E-001	0.00000E+000	9	...........	1467.52
	144	1.8125	2.43988E-001	3.03824E-006	0.00000E+000	2.44015E-001	0.00000E+000	9	...........	1467.52
	148	1.8625	2.47987E-001	3.10623E-006	0.00000E+000	2.48026E-001	0.00000E+000	9	...........	1467.52
	152	1.9125	2.51973E-001	3.20684E-006	0.00000E+000	2.52025E-001	0.00000E+000	9	...........	1467.52
	156	1.9625	2.55972E-001	3.27715E-006	0.00000E+000	2.56024E-001	0.00000E+000	9	...........	1467.52
	160	2.0125	2.59968E-001	3.38627E-006	0.00000E+000	2.60022E-001	0.00000E+000	9	...........	1467.52
	164	2.0625	2.63975E-001	3.46201E-006	0.00000E+000	2.64021E-001	0.00000E+000	9	...........	1467.52
	168	2.1125	2.67964E-001	3.56614E-006	0.00000E+000	2.68019E-001	0.00000E+000	9	...........	1467.52
	172	2.1625	2.71987E-001	3.64576E-006	0.00000E+000	2.72031E-001	0.00000E+000	9	...........	1467.52
	176	2.2125	2.75988E-001	3.74784E-006	0.00000E+000	2.76029E-001	0.00000E+000	9	...........	1467.52
	180	2.2625	2.79976E-001	3.83344E-006	0.00000E+000	2.80028E-001	0.00000E+000	9	...........	1467.52
	184	2.3125	2.84004E-001	3.94594E-006	0.00000E+000	2.84026E-001	0.00000E+000	9	...........	1467.52
	188	2.3625	2.87998E-001	4.03305E-006	0.00000E+000	2.88025E-001	0.00000E+000	9	...........	1467.52
	192	2.4125	2.91983E-001	4.15629E-006	0.00000E+000	2.92024E-001	0.00000E+000	9	...........	1467.52
	196	2.4625	2.96003E-001	4.24287E-006	0.00000E+000	2.96022E-001	0.00000E+000	9	...........	1467.52
	200	2.5125	3.00001E-001	4.36745E-006	0.00000E+000	3.00033E-001	0.00000E+000	9	...........	1467.52
[...]
	1036	12.9625	2.64007E-001	-3.73445E-007	0.00000E+000	2.64021E-001	0.00000E+000	9	...........	1467.61
	1041	13.025	2.59015E-001	-5.43918E-007	0.00000E+000	2.59023E-001	0.00000E+000	9	...........	1467.61
	1046	13.0875	2.53999E-001	-6.95276E-007	0.00000E+000	2.54024E-001	0.00000E+000	9	...........	1467.61
	1051	13.15	2.49018E-001	-8.28143E-007	0.00000E+000	2.49026E-001	0.00000E+000	9	...........	1467.61
	1056	13.2125	2.44029E-001	-9.51431E-007	0.00000E+000	2.44015E-001	0.00000E+000	9	...........	1467.61
	1061	13.275	2.39012E-001	-1.06817E-006	0.00000E+000	2.39017E-001	0.00000E+000	9	...........	1467.61
	1066	13.3375	2.34021E-001	-1.19297E-006	0.00000E+000	2.34019E-001	0.00000E+000	9	...........	1467.61
	1071	13.4	2.29011E-001	-1.32495E-006	0.00000E+000	2.29021E-001	0.00000E+000	9	...........	1467.61
	1076	13.4625	2.24018E-001	-1.46664E-006	0.00000E+000	2.24022E-001	0.00000E+000	9	...........	1467.61
	1081	13.525	2.19005E-001	-1.59714E-006	0.00000E+000	2.19012E-001	0.00000E+000	9	...........	1467.61
	1086	13.5875	2.13995E-001	-1.71691E-006	0.00000E+000	2.14013E-001	0.00000E+000	9	...........	1467.61
	1091	13.65	2.09006E-001	-1.82469E-006	0.00000E+000	2.09015E-001	0.00000E+000	9	...........	1467.61
	1096	13.7125	2.04014E-001	-1.94580E-006	0.00000E+000	2.04017E-001	0.00000E+000	9	...........	1467.61
	1101	13.775	1.99028E-001	-2.04890E-006	0.00000E+000	1.99019E-001	0.00000E+000	9	...........	1467.61
	1106	13.8375	1.94015E-001	-2.19050E-006	0.00000E+000	1.94008E-001	0.00000E+000	9	...........	1467.52
	1111	13.9	1.89001E-001	-2.30715E-006	0.00000E+000	1.89010E-001	0.00000E+000	9	...........	1467.52
	1116	13.9625	1.84011E-001	-2.45423E-006	0.00000E+000	1.84011E-001	0.00000E+000	9	...........	1467.52
	1121	14.025	1.78998E-001	-2.58799E-006	0.00000E+000	1.79013E-001	0.00000E+000	9	...........	1467.52
	1126	14.0875	1.74012E-001	-2.72299E-006	0.00000E+000	1.74015E-001	0.00000E+000	9	...........	1467.52
	1131	14.15	1.69011E-001	-2.86277E-006	0.00000E+000	1.69004E-001	0.00000E+000	9	...........	1467.52
	1136	14.2125	1.64000E-001	-2.97180E-006	0.00000E+000	1.64006E-001	0.00000E+000	9	...........	1467.52
	1141	14.275	1.58994E-001	-3.09241E-006	0.00000E+000	1.59007E-001	0.00000E+000	9	...........	1467.52
	1146	14.3375	1.54010E-001	-3.23392E-006	0.00000E+000	1.54009E-001	0.00000E+000	9	...........	1467.52
	1151	14.4	1.49009E-001	-3.38310E-006	0.00000E+000	1.49011E-001	0.00000E+000	9	...........	1467.52
	1156	14.4625	1.44003E-001	-3.53753E-006	0.00000E+000	1.44000E-001	0.00000E+000	9	...........	1467.52
	1161	14.525	1.38997E-001	-3.68064E-006	0.00000E+000	1.39002E-001	0.00000E+000	9	...........	1467.52
	1166	14.5875	1.34003E-001	-3.82100E-006	0.00000E+000	1.34004E-001	0.00000E+000	9	...........	1467.52
	1171	14.65	1.29012E-001	-3.95057E-006	0.00000E+000	1.29005E-001	0.00000E+000	9	...........	1467.52
	1176	14.7125	1.24005E-001	-4.07982E-006	0.00000E+000	1.24007E-001	0.00000E+000	9	...........	1467.52
	1181	14.775	1.19022E-001	-4.20173E-006	0.00000E+000	1.19009E-001	0.00000E+000	9	...........	1467.52
	1186	14.8375	1.13984E-001	-4.34569E-006	0.00000E+000	1.13998E-001	0.00000E+000	9	...........	1467.52
	1191	14.9	1.09019E-001	-4.49928E-006	0.00000E+000	1.09000E-001	0.00000E+000	9	...........	1467.52
	1196	14.9625	1.04015E-001	-4.66093E-006	0.00000E+000	1.04002E-001	0.00000E+000	9	...........	1467.52
	1200	15.0125	1.00008E-001	-4.77352E-006	0.00000E+000	1.00003E-001	0.00000E+000	9	...........	1467.52
CURVE4	TABLE
	Pt	T	Vf	Im	Vu	Sig	Ach	IERange	Over	Temp
	#	s	V vs. Ref.	A	V	V	V	#	bits	deg C
	1201	15.025	9.99876E-002	-3.60004E-006	0.00000E+000	1.00003E-001	0.00000E+000	9	...........	1467.52