Folder: gamry_post_processing_/input/ECSA_test (part 2)

File: CV_ECSA_#1_#3.DTA
EXPLAIN
TAG	CV
TITLE	LABEL	ECSA	Test Identifier
DATE	LABEL	2/13/2024	Date
TIME	LABEL	8:48:01	Time
NOTES	NOTES	1	Notes...

PSTAT	PSTAT	IFC1010-36068	Potentiostat
VINIT	POTEN	1.00000E-001	F	Initial E (V)
VLIMIT1	POTEN	3.00000E-001	F	Scan Limit 1 (V)
VLIMIT2	POTEN	1.00000E-001	F	Scan Limit 2 (V)
VFINAL	POTEN	1.00000E-001	F	Final E (V)
SCANRATE	QUANT	3.00000E+001	A Real Number
STEPSIZE	QUANT	1.00000E+000	Step Size (mV)
CYCLES	IQUANT	3	Cycles (#)
IMODE	SELECTOR	1	I/E Range Mode
IRANGE	QUANT	3.00000E-001	Max Current (mA)
AREA	QUANT	1.00000E+000	Sample Area (cm^2)
EQDELAY	QUANT	0.00000E+000	Equil. Time (s)
IRCOMP	SELECTOR	0	IRComp
PFCOR	QUANT	5.00000E+001	PF Corr. (ohm)
SAMPLINGMODE	SELECTOR	2	Sampling Mode
EOC	QUANT	0.3246219	Open Circuit (V)
ELECTRODETYPE	SELECTOR	0	Electrode Type
STRIPPING	TOGGLE	F	Used for Stripping
SEQUENCER	TOGGLE	TRUE	Run as Sequence
PSTATMODEL	IQUANT	64	Pstat Model
PSTATSECTION	LABEL	IFC1010-36068	Pstat Section
PSTATSERIALNO	LABEL	36068	Pstat Serial Number
CTRLMODE	IQUANT	1	Control Mode
ELECTROMETER	IQUANT	0	RE=0 or CS=1
IESTAB	IQUANT	2	I/E Stability
CASPEED	IQUANT	4	Control Amp Speed
CONVENTION	IQUANT	1	Current Convention
ICHRANGE	IQUANT	2	Ich Range
ICHRANGEMODE	TOGGLE	F	Ich Auto Range
ICHOFFSETENABLE	TOGGLE	F	Ich Offset Enable
ICHOFFSET	QUANT	0	Ich Offset (V)
ICHFILTER	IQUANT	3	Ich Filter
VCHRANGE	IQUANT	2	Vch Range
VCHRANGEMODE	TOGGLE	F	Vch Auto Range
VCHOFFSETENABLE	TOGGLE	F	Vch Offset Enable
VCHOFFSET	QUANT	0	Vch Offset (V)
VCHFILTER	IQUANT	3	Vch Filter
IERANGELOWERLIMIT	IQUANT	4	I/E Range Lower Limit
IERANGEMODE	TOGGLE	F	I/E AutoRange
IERANGE	IQUANT	9	I/E Range
ACHSELECT	IQUANT	0	Ach Select
ACHRANGE	IQUANT	2	Ach Range
ACHOFFSETENABLE	TOGGLE	F	Ach Offset Enable
ACHOFFSET	QUANT	0	Ach Offset (V)
ACHFILTER	IQUANT	1	Ach Filter
SENSECABLEID	IQUANT	13	Sense Cable ID
PWRCABLEID	IQUANT	13	Power Cable ID
DCCALDATE	LABEL	8/11/2023	DC Calibration Date
ACCALDATE	LABEL	6/2/2023	AC Calibration Date
FRAMEWORKVERSION	LABEL	7.10.3	Framework Version
INSTRUMENTVERSION	LABEL	4.91	Instrument Version
COMMVERSION	LABEL	3.10	Communications Version
CPUPLDVERSION	LABEL	2.22	CPU PLD Version
CTRLPLDVERSION	LABEL	0.00	CTRL PLD Version
PSTATPLDVERSION	LABEL	0.00	PSTAT PLD Version
CURVE1	TABLE
	Pt	T	Vf	Im	Vu	Sig	Ach	IERange	Over	Temp
	#	s	V vs. Ref.	A	V	V	V	#	bits	deg C
	0	0.033333	9.99934E-002	-9.49095E-006	0.00000E+000	1.00003E-001	0.00000E+000	9	...........	1467.52
	4	0.166667	1.04008E-001	-8.24433E-006	0.00000E+000	1.04002E-001	0.00000E+000	9	...........	1467.97
	8	0.3	1.07984E-001	-7.70983E-006	0.00000E+000	1.08000E-001	0.00000E+000	9	...........	1467.97
	12	0.433333	1.11970E-001	-7.23451E-006	0.00000E+000	1.11999E-001	0.00000E+000	9	...........	1467.97
	16	0.566667	1.15992E-001	-6.79135E-006	0.00000E+000	1.15997E-001	0.00000E+000	9	...........	1467.97
	20	0.7	1.19988E-001	-6.37879E-006	0.00000E+000	1.19996E-001	0.00000E+000	9	...........	1467.97
	24	0.833333	1.23980E-001	-6.01086E-006	0.00000E+000	1.23995E-001	0.00000E+000	9	...........	1467.97
	28	0.96667	1.27999E-001	-5.65623E-006	0.00000E+000	1.28006E-001	0.00000E+000	9	...........	1467.97
	32	1.1	1.32004E-001	-5.31452E-006	0.00000E+000	1.32004E-001	0.00000E+000	9	...........	1467.52
	36	1.23333	1.35986E-001	-5.00614E-006	0.00000E+000	1.36003E-001	0.00000E+000	9	...........	1467.52
	40	1.36667	1.39972E-001	-4.70057E-006	0.00000E+000	1.40002E-001	0.00000E+000	9	...........	1467.52
	44	1.5	1.43988E-001	-4.40662E-006	0.00000E+000	1.44000E-001	0.00000E+000	9	...........	1467.52
	48	1.63333	1.47981E-001	-4.14854E-006	0.00000E+000	1.47999E-001	0.00000E+000	9	...........	1467.52
	52	1.76667	1.51965E-001	-3.87495E-006	0.00000E+000	1.51997E-001	0.00000E+000	9	...........	1467.52
	56	1.9	1.55984E-001	-3.60978E-006	0.00000E+000	1.55996E-001	0.00000E+000	9	...........	1467.52
	60	2.03333	1.59976E-001	-3.36666E-006	0.00000E+000	1.59995E-001	0.00000E+000	9	...........	1467.52
	64	2.16667	1.63989E-001	-3.11835E-006	0.00000E+000	1.64006E-001	0.00000E+000	9	...........	1467.97
	68	2.3	1.67990E-001	-2.87864E-006	0.00000E+000	1.68004E-001	0.00000E+000	9	...........	1467.97
	72	2.43333	1.71978E-001	-2.65641E-006	0.00000E+000	1.72003E-001	0.00000E+000	9	...........	1467.97
	76	2.56667	1.75988E-001	-2.42878E-006	0.00000E+000	1.76002E-001	0.00000E+000	9	...........	1467.97
	80	2.7	1.79976E-001	-2.20736E-006	0.00000E+000	1.80000E-001	0.00000E+000	9	...........	1467.97
	84	2.83333	1.83987E-001	-1.99373E-006	0.00000E+000	1.83999E-001	0.00000E+000	9	...........	1467.97
	88	2.96667	1.87980E-001	-1.78450E-006	0.00000E+000	1.87997E-001	0.00000E+000	9	...........	1467.97
	92	3.1	1.92010E-001	-1.56907E-006	0.00000E+000	1.91996E-001	0.00000E+000	9	...........	1467.97
	96	3.23333	1.95988E-001	-1.38411E-006	0.00000E+000	1.95995E-001	0.00000E+000	9	...........	1467.97
	100	3.36667	1.99993E-001	-1.18246E-006	0.00000E+000	2.00006E-001	0.00000E+000	9	...........	1467.97
	104	3.5	2.03970E-001	-9.86527E-007	0.00000E+000	2.04004E-001	0.00000E+000	9	...........	1467.97
	108	3.63333	2.07987E-001	-8.13447E-007	0.00000E+000	2.08003E-001	0.00000E+000	9	...........	1467.97
	112	3.76667	2.11982E-001	-6.33545E-007	0.00000E+000	2.12001E-001	0.00000E+000	9	...........	1467.97
	116	3.9	2.15971E-001	-4.55928E-007	0.00000E+000	2.16000E-001	0.00000E+000	9	...........	1467.97
	120	4.03333	2.19972E-001	-2.98011E-007	0.00000E+000	2.19999E-001	0.00000E+000	9	...........	1467.97
	124	4.16667	2.23979E-001	-1.43631E-007	0.00000E+000	2.23997E-001	0.00000E+000	9	...........	1467.97
	128	4.3	2.27974E-001	1.62877E-008	0.00000E+000	2.27996E-001	0.00000E+000	9	...........	1467.97
	132	4.43333	2.31966E-001	1.52369E-007	0.00000E+000	2.31994E-001	0.00000E+000	9	...........	1467.97
	136	4.56667	2.35975E-001	2.96708E-007	0.00000E+000	2.36006E-001	0.00000E+000	9	...........	1467.97
	140	4.7	2.39979E-001	4.53141E-007	0.00000E+000	2.40004E-001	0.00000E+000	9	...........	1467.97
	144	4.83333	2.43999E-001	5.79447E-007	0.00000E+000	2.44003E-001	0.00000E+000	9	...........	1467.97
	148	4.96667	2.47971E-001	7.03119E-007	0.00000E+000	2.48001E-001	0.00000E+000	9	...........	1467.97
	152	5.1	2.51972E-001	8.41402E-007	0.00000E+000	2.52000E-001	0.00000E+000	9	...........	1467.88
	156	5.23333	2.55967E-001	9.54348E-007	0.00000E+000	2.55999E-001	0.00000E+000	9	...........	1467.88
	160	5.36667	2.59963E-001	1.06189E-006	0.00000E+000	2.59997E-001	0.00000E+000	9	...........	1467.88
	164	5.5	2.63970E-001	1.18810E-006	0.00000E+000	2.63996E-001	0.00000E+000	9	...........	1467.88
	168	5.63333	2.67949E-001	1.29158E-006	0.00000E+000	2.67994E-001	0.00000E+000	9	...........	1467.88
	172	5.76667	2.71984E-001	1.39901E-006	0.00000E+000	2.72006E-001	0.00000E+000	9	...........	1467.88
	176	5.9	2.75978E-001	1.51597E-006	0.00000E+000	2.76004E-001	0.00000E+000	9	...........	1467.88
	180	6.03333	2.79961E-001	1.62572E-006	0.00000E+000	2.80003E-001	0.00000E+000	9	...........	1467.88
	184	6.16667	2.83988E-001	1.72473E-006	0.00000E+000	2.84001E-001	0.00000E+000	9	...........	1467.52
	188	6.3	2.87990E-001	1.84055E-006	0.00000E+000	2.88000E-001	0.00000E+000	9	...........	1467.52
	192	6.43333	2.91969E-001	1.94747E-006	0.00000E+000	2.91999E-001	0.00000E+000	9	...........	1467.52
	196	6.56667	2.95984E-001	2.04951E-006	0.00000E+000	2.95997E-001	0.00000E+000	9	...........	1467.52
[...]
	1036	34.5667	2.63981E-001	-7.52629E-007	0.00000E+000	2.63996E-001	0.00000E+000	9	...........	1467.43
	1041	34.7333	2.58985E-001	-9.44041E-007	0.00000E+000	2.58998E-001	0.00000E+000	9	...........	1467.43
	1046	34.9	2.53963E-001	-1.14544E-006	0.00000E+000	2.53999E-001	0.00000E+000	9	...........	1467.43
	1051	35.0667	2.48985E-001	-1.32405E-006	0.00000E+000	2.49001E-001	0.00000E+000	9	...........	1467.43
	1056	35.2333	2.44010E-001	-1.51771E-006	0.00000E+000	2.44003E-001	0.00000E+000	9	...........	1467.43
	1061	35.4	2.38978E-001	-1.72797E-006	0.00000E+000	2.39005E-001	0.00000E+000	9	...........	1467.43
	1066	35.5667	2.34000E-001	-1.92847E-006	0.00000E+000	2.33994E-001	0.00000E+000	9	...........	1467.43
	1071	35.7333	2.28978E-001	-2.13703E-006	0.00000E+000	2.28996E-001	0.00000E+000	9	...........	1467.43
	1076	35.9	2.24002E-001	-2.37075E-006	0.00000E+000	2.23997E-001	0.00000E+000	9	...........	1467.43
	1081	36.0667	2.18993E-001	-2.59565E-006	0.00000E+000	2.18999E-001	0.00000E+000	9	...........	1467.70
	1086	36.2333	2.13960E-001	-2.83758E-006	0.00000E+000	2.14001E-001	0.00000E+000	9	...........	1467.70
	1091	36.4	2.08994E-001	-3.09329E-006	0.00000E+000	2.09003E-001	0.00000E+000	9	...........	1467.70
	1096	36.5667	2.03990E-001	-3.34352E-006	0.00000E+000	2.04004E-001	0.00000E+000	9	...........	1467.70
	1101	36.7333	1.99000E-001	-3.61263E-006	0.00000E+000	1.99006E-001	0.00000E+000	9	...........	1467.70
	1106	36.9	1.93998E-001	-3.89554E-006	0.00000E+000	1.93995E-001	0.00000E+000	9	...........	1467.70
	1111	37.0667	1.88990E-001	-4.17811E-006	0.00000E+000	1.88997E-001	0.00000E+000	9	...........	1467.61
	1116	37.2333	1.83986E-001	-4.48262E-006	0.00000E+000	1.83999E-001	0.00000E+000	9	...........	1467.61
	1121	37.4	1.78972E-001	-4.78329E-006	0.00000E+000	1.79000E-001	0.00000E+000	9	...........	1467.61
	1126	37.5667	1.74001E-001	-5.07902E-006	0.00000E+000	1.74002E-001	0.00000E+000	9	...........	1467.61
	1131	37.7333	1.69003E-001	-5.40033E-006	0.00000E+000	1.69004E-001	0.00000E+000	9	...........	1467.61
	1136	37.9	1.64006E-001	-5.71616E-006	0.00000E+000	1.64006E-001	0.00000E+000	9	...........	1467.61
	1141	38.0667	1.58988E-001	-6.02959E-006	0.00000E+000	1.58995E-001	0.00000E+000	9	...........	1467.43
	1146	38.2333	1.53985E-001	-6.34780E-006	0.00000E+000	1.53997E-001	0.00000E+000	9	...........	1467.43
	1151	38.4	1.48984E-001	-6.67008E-006	0.00000E+000	1.48998E-001	0.00000E+000	9	...........	1467.43
	1156	38.5667	1.43993E-001	-6.98959E-006	0.00000E+000	1.44000E-001	0.00000E+000	9	...........	1467.43
	1161	38.7333	1.38999E-001	-7.33164E-006	0.00000E+000	1.39002E-001	0.00000E+000	9	...........	1467.43
	1166	38.9	1.33993E-001	-7.67667E-006	0.00000E+000	1.34004E-001	0.00000E+000	9	...........	1467.43
	1171	39.0667	1.29004E-001	-8.02201E-006	0.00000E+000	1.29005E-001	0.00000E+000	9	...........	1467.52
	1176	39.2333	1.23977E-001	-8.40192E-006	0.00000E+000	1.23995E-001	0.00000E+000	9	...........	1467.52
	1181	39.4	1.19001E-001	-8.79098E-006	0.00000E+000	1.18996E-001	0.00000E+000	9	...........	1467.52
	1186	39.5667	1.13980E-001	-9.17223E-006	0.00000E+000	1.13998E-001	0.00000E+000	9	...........	1467.52
	1191	39.7333	1.08995E-001	-9.57674E-006	0.00000E+000	1.09000E-001	0.00000E+000	9	...........	1467.52
	1196	39.9	1.04013E-001	-9.98581E-006	0.00000E+000	1.04002E-001	0.00000E+000	9	...........	1467.52
	1200	40.0333	1.00010E-001	-1.03198E-005	0.00000E+000	1.00003E-001	0.00000E+000	9	...........	1467.61
CURVE4	TABLE
	Pt	T	Vf	Im	Vu	Sig	Ach	IERange	Over	Temp
	#	s	V vs. Ref.	A	V	V	V	#	bits	deg C
	1201	40.0667	1.00006E-001	-9.80158E-006	0.00000E+000	1.00003E-001	0.00000E+000	9	...........	1467.79

File: CV_ECSA_#1_#4.DTA
EXPLAIN
TAG	CV
TITLE	LABEL	ECSA	Test Identifier
DATE	LABEL	2/13/2024	Date
TIME	LABEL	8:48:41	Time
NOTES	NOTES	1	Notes...

PSTAT	PSTAT	IFC1010-36068	Potentiostat
VINIT	POTEN	1.00000E-001	F	Initial E (V)
VLIMIT1	POTEN	3.00000E-001	F	Scan Limit 1 (V)
VLIMIT2	POTEN	1.00000E-001	F	Scan Limit 2 (V)
VFINAL	POTEN	1.00000E-001	F	Final E (V)
SCANRATE	QUANT	3.99999E+001	A Real Number
STEPSIZE	QUANT	1.00000E+000	Step Size (mV)
CYCLES	IQUANT	3	Cycles (#)
IMODE	SELECTOR	1	I/E Range Mode
IRANGE	QUANT	3.00000E-001	Max Current (mA)
AREA	QUANT	1.00000E+000	Sample Area (cm^2)
EQDELAY	QUANT	0.00000E+000	Equil. Time (s)
IRCOMP	SELECTOR	0	IRComp
PFCOR	QUANT	5.00000E+001	PF Corr. (ohm)
SAMPLINGMODE	SELECTOR	2	Sampling Mode
EOC	QUANT	0.3246219	Open Circuit (V)
ELECTRODETYPE	SELECTOR	0	Electrode Type
STRIPPING	TOGGLE	F	Used for Stripping
SEQUENCER	TOGGLE	TRUE	Run as Sequence
PSTATMODEL	IQUANT	64	Pstat Model
PSTATSECTION	LABEL	IFC1010-36068	Pstat Section
PSTATSERIALNO	LABEL	36068	Pstat Serial Number
CTRLMODE	IQUANT	1	Control Mode
ELECTROMETER	IQUANT	0	RE=0 or CS=1
IESTAB	IQUANT	2	I/E Stability
CASPEED	IQUANT	4	Control Amp Speed
CONVENTION	IQUANT	1	Current Convention
ICHRANGE	IQUANT	2	Ich Range
ICHRANGEMODE	TOGGLE	F	Ich Auto Range
ICHOFFSETENABLE	TOGGLE	F	Ich Offset Enable
ICHOFFSET	QUANT	0	Ich Offset (V)
ICHFILTER	IQUANT	3	Ich Filter
VCHRANGE	IQUANT	2	Vch Range
VCHRANGEMODE	TOGGLE	F	Vch Auto Range
VCHOFFSETENABLE	TOGGLE	F	Vch Offset Enable
VCHOFFSET	QUANT	0	Vch Offset (V)
VCHFILTER	IQUANT	3	Vch Filter
IERANGELOWERLIMIT	IQUANT	4	I/E Range Lower Limit
IERANGEMODE	TOGGLE	F	I/E AutoRange
IERANGE	IQUANT	9	I/E Range
ACHSELECT	IQUANT	0	Ach Select
ACHRANGE	IQUANT	2	Ach Range
ACHOFFSETENABLE	TOGGLE	F	Ach Offset Enable
ACHOFFSET	QUANT	0	Ach Offset (V)
ACHFILTER	IQUANT	1	Ach Filter
SENSECABLEID	IQUANT	13	Sense Cable ID
PWRCABLEID	IQUANT	13	Power Cable ID
DCCALDATE	LABEL	8/11/2023	DC Calibration Date
ACCALDATE	LABEL	6/2/2023	AC Calibration Date
FRAMEWORKVERSION	LABEL	7.10.3	Framework Version
INSTRUMENTVERSION	LABEL	4.91	Instrument Version
COMMVERSION	LABEL	3.10	Communications Version
CPUPLDVERSION	LABEL	2.22	CPU PLD Version
CTRLPLDVERSION	LABEL	0.00	CTRL PLD Version
PSTATPLDVERSION	LABEL	0.00	PSTAT PLD Version
CURVE1	TABLE
	Pt	T	Vf	Im	Vu	Sig	Ach	IERange	Over	Temp
	#	s	V vs. Ref.	A	V	V	V	#	bits	deg C
	0	0.025	9.99963E-002	-9.85001E-006	0.00000E+000	1.00003E-001	0.00000E+000	9	...........	1467.79
	4	0.125	1.03997E-001	-8.41783E-006	0.00000E+000	1.04002E-001	0.00000E+000	9	...........	1467.79
	8	0.225	1.07980E-001	-7.83534E-006	0.00000E+000	1.08000E-001	0.00000E+000	9	...........	1467.79
	12	0.325	1.11967E-001	-7.31050E-006	0.00000E+000	1.11999E-001	0.00000E+000	9	...........	1467.79
	16	0.425	1.15984E-001	-6.83750E-006	0.00000E+000	1.15997E-001	0.00000E+000	9	...........	1467.79
	20	0.525	1.19972E-001	-6.39476E-006	0.00000E+000	1.19996E-001	0.00000E+000	9	...........	1467.79
	24	0.625	1.23963E-001	-5.98532E-006	0.00000E+000	1.23995E-001	0.00000E+000	9	...........	1467.79
	28	0.725	1.27996E-001	-5.60420E-006	0.00000E+000	1.28006E-001	0.00000E+000	9	...........	1467.79
	32	0.825	1.32000E-001	-5.23930E-006	0.00000E+000	1.32004E-001	0.00000E+000	9	...........	1467.79
	36	0.925	1.35968E-001	-4.90571E-006	0.00000E+000	1.36003E-001	0.00000E+000	9	...........	1467.61
	40	1.025	1.39970E-001	-4.58302E-006	0.00000E+000	1.40002E-001	0.00000E+000	9	...........	1467.61
	44	1.125	1.43981E-001	-4.28264E-006	0.00000E+000	1.44000E-001	0.00000E+000	9	...........	1467.61
	48	1.225	1.47967E-001	-3.98914E-006	0.00000E+000	1.47999E-001	0.00000E+000	9	...........	1467.61
	52	1.325	1.51963E-001	-3.70496E-006	0.00000E+000	1.51997E-001	0.00000E+000	9	...........	1467.61
	56	1.425	1.55966E-001	-3.43669E-006	0.00000E+000	1.55996E-001	0.00000E+000	9	...........	1467.61
	60	1.525	1.59963E-001	-3.17349E-006	0.00000E+000	1.59995E-001	0.00000E+000	9	...........	1467.61
	64	1.625	1.63974E-001	-2.91694E-006	0.00000E+000	1.64006E-001	0.00000E+000	9	...........	1467.61
	68	1.725	1.67988E-001	-2.67172E-006	0.00000E+000	1.68004E-001	0.00000E+000	9	...........	1467.61
	72	1.825	1.71969E-001	-2.43780E-006	0.00000E+000	1.72003E-001	0.00000E+000	9	...........	1467.61
	76	1.925	1.75975E-001	-2.20544E-006	0.00000E+000	1.76002E-001	0.00000E+000	9	...........	1467.79
	80	2.025	1.79967E-001	-1.98698E-006	0.00000E+000	1.80000E-001	0.00000E+000	9	...........	1467.79
	84	2.125	1.83968E-001	-1.76103E-006	0.00000E+000	1.83999E-001	0.00000E+000	9	...........	1467.79
	88	2.225	1.87973E-001	-1.54379E-006	0.00000E+000	1.87997E-001	0.00000E+000	9	...........	1467.79
	92	2.325	1.91999E-001	-1.33813E-006	0.00000E+000	1.91996E-001	0.00000E+000	9	...........	1467.79
	96	2.425	1.95973E-001	-1.12848E-006	0.00000E+000	1.95995E-001	0.00000E+000	9	...........	1467.79
	100	2.525	1.99982E-001	-9.41882E-007	0.00000E+000	2.00006E-001	0.00000E+000	9	...........	1467.79
	104	2.625	2.03973E-001	-7.48342E-007	0.00000E+000	2.04004E-001	0.00000E+000	9	...........	1467.79
	108	2.725	2.07974E-001	-5.64147E-007	0.00000E+000	2.08003E-001	0.00000E+000	9	...........	1467.79
	112	2.825	2.11972E-001	-3.85136E-007	0.00000E+000	2.12001E-001	0.00000E+000	9	...........	1467.79
	116	2.925	2.15962E-001	-2.09062E-007	0.00000E+000	2.16000E-001	0.00000E+000	9	...........	1467.79
	120	3.025	2.19960E-001	-4.44903E-008	0.00000E+000	2.19999E-001	0.00000E+000	9	...........	1467.79
	124	3.125	2.23966E-001	1.14608E-007	0.00000E+000	2.23997E-001	0.00000E+000	9	...........	1467.79
	128	3.225	2.27963E-001	2.73774E-007	0.00000E+000	2.27996E-001	0.00000E+000	9	...........	1467.79
	132	3.325	2.31964E-001	4.29135E-007	0.00000E+000	2.31994E-001	0.00000E+000	9	...........	1467.79
	136	3.425	2.35965E-001	5.77621E-007	0.00000E+000	2.36006E-001	0.00000E+000	9	...........	1467.79
	140	3.525	2.39969E-001	7.23949E-007	0.00000E+000	2.40004E-001	0.00000E+000	9	...........	1467.79
	144	3.625	2.43992E-001	8.49809E-007	0.00000E+000	2.44003E-001	0.00000E+000	9	...........	1467.79
	148	3.725	2.47971E-001	9.78472E-007	0.00000E+000	2.48001E-001	0.00000E+000	9	...........	1467.79
	152	3.825	2.51958E-001	1.10811E-006	0.00000E+000	2.52000E-001	0.00000E+000	9	...........	1467.79
	156	3.925	2.55961E-001	1.23435E-006	0.00000E+000	2.55999E-001	0.00000E+000	9	...........	1467.79
	160	4.025	2.59955E-001	1.35242E-006	0.00000E+000	2.59997E-001	0.00000E+000	9	...........	1467.79
	164	4.125	2.63956E-001	1.46867E-006	0.00000E+000	2.63996E-001	0.00000E+000	9	...........	1467.79
	168	4.225	2.67953E-001	1.58848E-006	0.00000E+000	2.67994E-001	0.00000E+000	9	...........	1467.79
	172	4.325	2.71979E-001	1.70680E-006	0.00000E+000	2.72006E-001	0.00000E+000	9	...........	1467.79
	176	4.425	2.75968E-001	1.81917E-006	0.00000E+000	2.76004E-001	0.00000E+000	9	...........	1467.79
	180	4.525	2.79956E-001	1.93749E-006	0.00000E+000	2.80003E-001	0.00000E+000	9	...........	1467.79
	184	4.625	2.83977E-001	2.05060E-006	0.00000E+000	2.84001E-001	0.00000E+000	9	...........	1467.79
	188	4.725	2.87972E-001	2.16823E-006	0.00000E+000	2.88000E-001	0.00000E+000	9	...........	1467.79
	192	4.825	2.91958E-001	2.27333E-006	0.00000E+000	2.91999E-001	0.00000E+000	9	...........	1467.79
	196	4.925	2.95982E-001	2.38758E-006	0.00000E+000	2.95997E-001	0.00000E+000	9	...........	1467.79
	200	5.025	2.99978E-001	2.50721E-006	0.00000E+000	2.99996E-001	0.00000E+000	9	...........	1467.79
[...]
	1069	26.75	2.30982E-001	-2.15645E-006	0.00000E+000	2.30995E-001	0.00000E+000	9	...........	1467.61
	1073	26.85	2.26969E-001	-2.32251E-006	0.00000E+000	2.26996E-001	0.00000E+000	9	...........	1467.61
	1077	26.95	2.22987E-001	-2.50090E-006	0.00000E+000	2.22998E-001	0.00000E+000	9	...........	1467.52
	1081	27.05	2.18989E-001	-2.68970E-006	0.00000E+000	2.18999E-001	0.00000E+000	9	...........	1467.52
	1085	27.15	2.14971E-001	-2.88175E-006	0.00000E+000	2.15000E-001	0.00000E+000	9	...........	1467.52
	1089	27.25	2.10973E-001	-3.07471E-006	0.00000E+000	2.11002E-001	0.00000E+000	9	...........	1467.52
	1093	27.35	2.06977E-001	-3.28682E-006	0.00000E+000	2.07003E-001	0.00000E+000	9	...........	1467.52
	1097	27.45	2.02981E-001	-3.49249E-006	0.00000E+000	2.03005E-001	0.00000E+000	9	...........	1467.52
	1101	27.55	1.99007E-001	-3.70932E-006	0.00000E+000	1.99006E-001	0.00000E+000	9	...........	1467.52
	1105	27.65	1.94986E-001	-3.94104E-006	0.00000E+000	1.94995E-001	0.00000E+000	9	...........	1467.52
	1109	27.75	1.90982E-001	-4.16622E-006	0.00000E+000	1.90996E-001	0.00000E+000	9	...........	1467.52
	1113	27.85	1.86989E-001	-4.40583E-006	0.00000E+000	1.86998E-001	0.00000E+000	9	...........	1467.52
	1117	27.95	1.82992E-001	-4.64233E-006	0.00000E+000	1.82999E-001	0.00000E+000	9	...........	1467.52
	1121	28.05	1.78969E-001	-4.88613E-006	0.00000E+000	1.79000E-001	0.00000E+000	9	...........	1467.52
	1125	28.15	1.74982E-001	-5.14235E-006	0.00000E+000	1.75002E-001	0.00000E+000	9	...........	1467.52
	1129	28.25	1.70997E-001	-5.39360E-006	0.00000E+000	1.71003E-001	0.00000E+000	9	...........	1467.52
	1133	28.35	1.67009E-001	-5.64469E-006	0.00000E+000	1.67005E-001	0.00000E+000	9	...........	1467.52
	1137	28.45	1.62980E-001	-5.90538E-006	0.00000E+000	1.63006E-001	0.00000E+000	9	...........	1467.52
	1141	28.55	1.58970E-001	-6.16077E-006	0.00000E+000	1.58995E-001	0.00000E+000	9	...........	1467.52
	1145	28.65	1.54982E-001	-6.42435E-006	0.00000E+000	1.54996E-001	0.00000E+000	9	...........	1467.52
	1149	28.75	1.50972E-001	-6.69335E-006	0.00000E+000	1.50998E-001	0.00000E+000	9	...........	1467.52
	1153	28.85	1.46988E-001	-6.96336E-006	0.00000E+000	1.46999E-001	0.00000E+000	9	...........	1467.52
	1157	28.95	1.42999E-001	-7.23937E-006	0.00000E+000	1.43001E-001	0.00000E+000	9	...........	1467.52
	1161	29.05	1.38990E-001	-7.51207E-006	0.00000E+000	1.39002E-001	0.00000E+000	9	...........	1467.52
	1165	29.15	1.34997E-001	-7.80157E-006	0.00000E+000	1.35003E-001	0.00000E+000	9	...........	1467.52
	1169	29.25	1.31003E-001	-8.09398E-006	0.00000E+000	1.31005E-001	0.00000E+000	9	...........	1467.52
	1173	29.35	1.26996E-001	-8.40032E-006	0.00000E+000	1.27006E-001	0.00000E+000	9	...........	1467.52
	1177	29.45	1.22989E-001	-8.72174E-006	0.00000E+000	1.22995E-001	0.00000E+000	9	...........	1467.52
	1181	29.55	1.19001E-001	-9.04555E-006	0.00000E+000	1.18996E-001	0.00000E+000	9	...........	1467.52
	1185	29.65	1.14990E-001	-9.37981E-006	0.00000E+000	1.14998E-001	0.00000E+000	9	...........	1467.52
	1189	29.75	1.10990E-001	-9.72252E-006	0.00000E+000	1.10999E-001	0.00000E+000	9	...........	1467.52
	1193	29.85	1.06991E-001	-1.00757E-005	0.00000E+000	1.07001E-001	0.00000E+000	9	...........	1467.52
	1197	29.95	1.03010E-001	-1.04238E-005	0.00000E+000	1.03002E-001	0.00000E+000	9	...........	1467.52
	1200	30.025	9.99992E-002	-1.06922E-005	0.00000E+000	1.00003E-001	0.00000E+000	9	...........	1467.52
CURVE4	TABLE
	Pt	T	Vf	Im	Vu	Sig	Ach	IERange	Over	Temp
	#	s	V vs. Ref.	A	V	V	V	#	bits	deg C
	1201	30.05	9.99916E-002	-1.00504E-005	0.00000E+000	1.00003E-001	0.00000E+000	9	...........	1467.52