Folder: gamry_post_processing_/input/ECSA_test (part 7)

File: CV_ECSA_#2_#3.DTA
EXPLAIN
TAG	CV
TITLE	LABEL	ECSA	Test Identifier
DATE	LABEL	2/13/2024	Date
TIME	LABEL	12:03:14	Time
NOTES	NOTES	1	Notes...

PSTAT	PSTAT	IFC1010-36068	Potentiostat
VINIT	POTEN	1.00000E-001	F	Initial E (V)
VLIMIT1	POTEN	3.00000E-001	F	Scan Limit 1 (V)
VLIMIT2	POTEN	1.00000E-001	F	Scan Limit 2 (V)
VFINAL	POTEN	1.00000E-001	F	Final E (V)
SCANRATE	QUANT	3.00000E+001	A Real Number
STEPSIZE	QUANT	1.00000E+000	Step Size (mV)
CYCLES	IQUANT	3	Cycles (#)
IMODE	SELECTOR	1	I/E Range Mode
IRANGE	QUANT	3.00000E-001	Max Current (mA)
AREA	QUANT	1.00000E+000	Sample Area (cm^2)
EQDELAY	QUANT	0.00000E+000	Equil. Time (s)
IRCOMP	SELECTOR	0	IRComp
PFCOR	QUANT	5.00000E+001	PF Corr. (ohm)
SAMPLINGMODE	SELECTOR	2	Sampling Mode
EOC	QUANT	0.3246219	Open Circuit (V)
ELECTRODETYPE	SELECTOR	0	Electrode Type
STRIPPING	TOGGLE	F	Used for Stripping
SEQUENCER	TOGGLE	TRUE	Run as Sequence
PSTATMODEL	IQUANT	64	Pstat Model
PSTATSECTION	LABEL	IFC1010-36068	Pstat Section
PSTATSERIALNO	LABEL	36068	Pstat Serial Number
CTRLMODE	IQUANT	1	Control Mode
ELECTROMETER	IQUANT	0	RE=0 or CS=1
IESTAB	IQUANT	2	I/E Stability
CASPEED	IQUANT	4	Control Amp Speed
CONVENTION	IQUANT	1	Current Convention
ICHRANGE	IQUANT	2	Ich Range
ICHRANGEMODE	TOGGLE	F	Ich Auto Range
ICHOFFSETENABLE	TOGGLE	F	Ich Offset Enable
ICHOFFSET	QUANT	0	Ich Offset (V)
ICHFILTER	IQUANT	3	Ich Filter
VCHRANGE	IQUANT	2	Vch Range
VCHRANGEMODE	TOGGLE	F	Vch Auto Range
VCHOFFSETENABLE	TOGGLE	F	Vch Offset Enable
VCHOFFSET	QUANT	0	Vch Offset (V)
VCHFILTER	IQUANT	3	Vch Filter
IERANGELOWERLIMIT	IQUANT	4	I/E Range Lower Limit
IERANGEMODE	TOGGLE	F	I/E AutoRange
IERANGE	IQUANT	9	I/E Range
ACHSELECT	IQUANT	0	Ach Select
ACHRANGE	IQUANT	2	Ach Range
ACHOFFSETENABLE	TOGGLE	F	Ach Offset Enable
ACHOFFSET	QUANT	0	Ach Offset (V)
ACHFILTER	IQUANT	1	Ach Filter
SENSECABLEID	IQUANT	13	Sense Cable ID
PWRCABLEID	IQUANT	13	Power Cable ID
DCCALDATE	LABEL	8/11/2023	DC Calibration Date
ACCALDATE	LABEL	6/2/2023	AC Calibration Date
FRAMEWORKVERSION	LABEL	7.10.3	Framework Version
INSTRUMENTVERSION	LABEL	4.91	Instrument Version
COMMVERSION	LABEL	3.10	Communications Version
CPUPLDVERSION	LABEL	2.22	CPU PLD Version
CTRLPLDVERSION	LABEL	0.00	CTRL PLD Version
PSTATPLDVERSION	LABEL	0.00	PSTAT PLD Version
CURVE1	TABLE
	Pt	T	Vf	Im	Vu	Sig	Ach	IERange	Over	Temp
	#	s	V vs. Ref.	A	V	V	V	#	bits	deg C
	0	0.033333	9.99932E-002	-1.81298E-006	0.00000E+000	1.00003E-001	0.00000E+000	9	...........	1467.52
	4	0.166667	1.04003E-001	-1.03734E-006	0.00000E+000	1.04002E-001	0.00000E+000	9	...........	1467.52
	8	0.3	1.07978E-001	-8.26192E-007	0.00000E+000	1.08000E-001	0.00000E+000	9	...........	1467.52
	12	0.433333	1.11975E-001	-6.49859E-007	0.00000E+000	1.11999E-001	0.00000E+000	9	...........	1467.52
	16	0.566667	1.15994E-001	-5.15545E-007	0.00000E+000	1.15997E-001	0.00000E+000	9	...........	1467.52
	20	0.7	1.19992E-001	-3.78313E-007	0.00000E+000	1.19996E-001	0.00000E+000	9	...........	1467.79
	24	0.833333	1.23960E-001	-2.40146E-007	0.00000E+000	1.23995E-001	0.00000E+000	9	...........	1467.79
	28	0.96667	1.27990E-001	-1.30270E-007	0.00000E+000	1.28006E-001	0.00000E+000	9	...........	1467.79
	32	1.1	1.32012E-001	-2.51974E-008	0.00000E+000	1.32004E-001	0.00000E+000	9	...........	1467.79
	36	1.23333	1.35983E-001	8.78982E-008	0.00000E+000	1.36003E-001	0.00000E+000	9	...........	1467.79
	40	1.36667	1.39977E-001	1.88166E-007	0.00000E+000	1.40002E-001	0.00000E+000	9	...........	1467.79
	44	1.5	1.43987E-001	2.77992E-007	0.00000E+000	1.44000E-001	0.00000E+000	9	...........	1467.79
	48	1.63333	1.47983E-001	3.82264E-007	0.00000E+000	1.47999E-001	0.00000E+000	9	...........	1467.79
	52	1.76667	1.51969E-001	4.67736E-007	0.00000E+000	1.51997E-001	0.00000E+000	9	...........	1467.52
	56	1.9	1.55981E-001	5.53208E-007	0.00000E+000	1.55996E-001	0.00000E+000	9	...........	1467.52
	60	2.03333	1.59971E-001	6.48973E-007	0.00000E+000	1.59995E-001	0.00000E+000	9	...........	1467.52
	64	2.16667	1.63983E-001	7.21301E-007	0.00000E+000	1.64006E-001	0.00000E+000	9	...........	1467.52
	68	2.3	1.67994E-001	8.02836E-007	0.00000E+000	1.68004E-001	0.00000E+000	9	...........	1467.52
	72	2.43333	1.71973E-001	8.94430E-007	0.00000E+000	1.72003E-001	0.00000E+000	9	...........	1467.52
	76	2.56667	1.75982E-001	9.63789E-007	0.00000E+000	1.76002E-001	0.00000E+000	9	...........	1467.52
	80	2.7	1.79986E-001	1.03900E-006	0.00000E+000	1.80000E-001	0.00000E+000	9	...........	1467.52
	84	2.83333	1.83994E-001	1.12718E-006	0.00000E+000	1.83999E-001	0.00000E+000	9	...........	1467.52
	88	2.96667	1.87982E-001	1.18763E-006	0.00000E+000	1.87997E-001	0.00000E+000	9	...........	1467.52
	92	3.1	1.91998E-001	1.25902E-006	0.00000E+000	1.91996E-001	0.00000E+000	9	...........	1467.52
	96	3.23333	1.95973E-001	1.34548E-006	0.00000E+000	1.95995E-001	0.00000E+000	9	...........	1467.52
	100	3.36667	1.99996E-001	1.40176E-006	0.00000E+000	2.00006E-001	0.00000E+000	9	...........	1467.52
	104	3.5	2.03983E-001	1.47207E-006	0.00000E+000	2.04004E-001	0.00000E+000	9	...........	1467.52
	108	3.63333	2.07983E-001	1.55451E-006	0.00000E+000	2.08003E-001	0.00000E+000	9	...........	1467.52
	112	3.76667	2.11980E-001	1.61504E-006	0.00000E+000	2.12001E-001	0.00000E+000	9	...........	1467.52
	116	3.9	2.15962E-001	1.67576E-006	0.00000E+000	2.16000E-001	0.00000E+000	9	...........	1467.52
	120	4.03333	2.19977E-001	1.76171E-006	0.00000E+000	2.19999E-001	0.00000E+000	9	...........	1467.52
	124	4.16667	2.23981E-001	1.82070E-006	0.00000E+000	2.23997E-001	0.00000E+000	9	...........	1467.52
	128	4.3	2.27953E-001	1.88815E-006	0.00000E+000	2.27996E-001	0.00000E+000	9	...........	1467.52
	132	4.43333	2.31974E-001	1.96469E-006	0.00000E+000	2.31994E-001	0.00000E+000	9	...........	1467.52
	136	4.56667	2.35962E-001	2.02082E-006	0.00000E+000	2.36006E-001	0.00000E+000	9	...........	1467.52
	140	4.7	2.39975E-001	2.08969E-006	0.00000E+000	2.40004E-001	0.00000E+000	9	...........	1467.52
	144	4.83333	2.43989E-001	2.17003E-006	0.00000E+000	2.44003E-001	0.00000E+000	9	...........	1467.52
	148	4.96667	2.47979E-001	2.23191E-006	0.00000E+000	2.48001E-001	0.00000E+000	9	...........	1467.52
	152	5.1	2.51970E-001	2.29680E-006	0.00000E+000	2.52000E-001	0.00000E+000	9	...........	1467.52
	156	5.23333	2.55967E-001	2.38105E-006	0.00000E+000	2.55999E-001	0.00000E+000	9	...........	1467.52
	160	5.36667	2.59969E-001	2.44214E-006	0.00000E+000	2.59997E-001	0.00000E+000	9	...........	1467.52
	164	5.5	2.63958E-001	2.50973E-006	0.00000E+000	2.63996E-001	0.00000E+000	9	...........	1467.52
	168	5.63333	2.67950E-001	2.59957E-006	0.00000E+000	2.67994E-001	0.00000E+000	9	...........	1467.52
	172	5.76667	2.71984E-001	2.66788E-006	0.00000E+000	2.72006E-001	0.00000E+000	9	...........	1467.52
	176	5.9	2.75977E-001	2.73952E-006	0.00000E+000	2.76004E-001	0.00000E+000	9	...........	1467.52
	180	6.03333	2.79961E-001	2.82675E-006	0.00000E+000	2.80003E-001	0.00000E+000	9	...........	1467.52
	184	6.16667	2.83989E-001	2.90213E-006	0.00000E+000	2.84001E-001	0.00000E+000	9	...........	1467.52
	188	6.3	2.87995E-001	2.97861E-006	0.00000E+000	2.88000E-001	0.00000E+000	9	...........	1467.52
	192	6.43333	2.91967E-001	3.07589E-006	0.00000E+000	2.91999E-001	0.00000E+000	9	...........	1467.52
	196	6.56667	2.95974E-001	3.16031E-006	0.00000E+000	2.95997E-001	0.00000E+000	9	...........	1467.52
	200	6.7	2.99973E-001	3.23828E-006	0.00000E+000	2.99996E-001	0.00000E+000	9	...........	1467.61
[...]
	1069	35.6667	2.30997E-001	-2.43300E-008	0.00000E+000	2.30995E-001	0.00000E+000	9	...........	1467.43
	1073	35.8	2.26972E-001	-1.15974E-007	0.00000E+000	2.26996E-001	0.00000E+000	9	...........	1467.43
	1077	35.9333	2.22983E-001	-1.93907E-007	0.00000E+000	2.22998E-001	0.00000E+000	9	...........	1467.43
	1081	36.0667	2.18992E-001	-2.73474E-007	0.00000E+000	2.18999E-001	0.00000E+000	9	...........	1467.43
	1085	36.2	2.14977E-001	-3.67704E-007	0.00000E+000	2.15000E-001	0.00000E+000	9	...........	1467.43
	1089	36.3333	2.10979E-001	-4.41650E-007	0.00000E+000	2.11002E-001	0.00000E+000	9	...........	1467.43
	1093	36.4667	2.06980E-001	-5.22902E-007	0.00000E+000	2.07003E-001	0.00000E+000	9	...........	1467.43
	1097	36.6	2.02991E-001	-6.21218E-007	0.00000E+000	2.03005E-001	0.00000E+000	9	...........	1467.43
	1101	36.7333	1.99004E-001	-6.96549E-007	0.00000E+000	1.99006E-001	0.00000E+000	9	...........	1467.97
	1105	36.8667	1.94997E-001	-7.78168E-007	0.00000E+000	1.94995E-001	0.00000E+000	9	...........	1467.97
	1109	37	1.90980E-001	-8.82539E-007	0.00000E+000	1.90996E-001	0.00000E+000	9	...........	1467.97
	1113	37.1333	1.87003E-001	-9.57386E-007	0.00000E+000	1.86998E-001	0.00000E+000	9	...........	1467.97
	1117	37.2667	1.83000E-001	-1.04356E-006	0.00000E+000	1.82999E-001	0.00000E+000	9	...........	1467.97
	1121	37.4	1.78977E-001	-1.15098E-006	0.00000E+000	1.79000E-001	0.00000E+000	9	...........	1467.97
	1125	37.5333	1.74998E-001	-1.22531E-006	0.00000E+000	1.75002E-001	0.00000E+000	9	...........	1467.97
	1129	37.6667	1.70990E-001	-1.30765E-006	0.00000E+000	1.71003E-001	0.00000E+000	9	...........	1467.61
	1133	37.8	1.67010E-001	-1.39979E-006	0.00000E+000	1.67005E-001	0.00000E+000	9	...........	1467.61
	1137	37.9333	1.62983E-001	-1.48223E-006	0.00000E+000	1.63006E-001	0.00000E+000	9	...........	1467.61
	1141	38.0667	1.58980E-001	-1.56467E-006	0.00000E+000	1.58995E-001	0.00000E+000	9	...........	1467.61
	1145	38.2	1.55008E-001	-1.66979E-006	0.00000E+000	1.54996E-001	0.00000E+000	9	...........	1467.61
	1149	38.3333	1.50980E-001	-1.74270E-006	0.00000E+000	1.50998E-001	0.00000E+000	9	...........	1467.61
	1153	38.4667	1.46998E-001	-1.82042E-006	0.00000E+000	1.46999E-001	0.00000E+000	9	...........	1467.61
	1157	38.6	1.43014E-001	-1.91628E-006	0.00000E+000	1.43001E-001	0.00000E+000	9	...........	1467.61
	1161	38.7333	1.39012E-001	-1.98639E-006	0.00000E+000	1.39002E-001	0.00000E+000	9	...........	1467.52
	1165	38.8667	1.34997E-001	-2.06973E-006	0.00000E+000	1.35003E-001	0.00000E+000	9	...........	1467.52
	1169	39	1.31016E-001	-2.16653E-006	0.00000E+000	1.31005E-001	0.00000E+000	9	...........	1467.52
	1173	39.1333	1.26992E-001	-2.23618E-006	0.00000E+000	1.27006E-001	0.00000E+000	9	...........	1467.52
	1177	39.2667	1.22985E-001	-2.31870E-006	0.00000E+000	1.22995E-001	0.00000E+000	9	...........	1467.52
	1181	39.4	1.19004E-001	-2.41438E-006	0.00000E+000	1.18996E-001	0.00000E+000	9	...........	1467.52
	1185	39.5333	1.14997E-001	-2.49367E-006	0.00000E+000	1.14998E-001	0.00000E+000	9	...........	1467.52
	1189	39.6667	1.10992E-001	-2.57912E-006	0.00000E+000	1.10999E-001	0.00000E+000	9	...........	1467.52
	1193	39.8	1.06996E-001	-2.66718E-006	0.00000E+000	1.07001E-001	0.00000E+000	9	...........	1467.52
	1197	39.9333	1.03015E-001	-2.74556E-006	0.00000E+000	1.03002E-001	0.00000E+000	9	...........	1467.52
	1200	40.0333	1.00003E-001	-2.80852E-006	0.00000E+000	1.00003E-001	0.00000E+000	9	...........	1467.52
CURVE4	TABLE
	Pt	T	Vf	Im	Vu	Sig	Ach	IERange	Over	Temp
	#	s	V vs. Ref.	A	V	V	V	#	bits	deg C
	1201	40.0667	9.99940E-002	-2.29775E-006	0.00000E+000	1.00003E-001	0.00000E+000	9	...........	1467.52

File: CV_ECSA_#2_#4.DTA
EXPLAIN
TAG	CV
TITLE	LABEL	ECSA	Test Identifier
DATE	LABEL	2/13/2024	Date
TIME	LABEL	12:03:54	Time
NOTES	NOTES	1	Notes...

PSTAT	PSTAT	IFC1010-36068	Potentiostat
VINIT	POTEN	1.00000E-001	F	Initial E (V)
VLIMIT1	POTEN	3.00000E-001	F	Scan Limit 1 (V)
VLIMIT2	POTEN	1.00000E-001	F	Scan Limit 2 (V)
VFINAL	POTEN	1.00000E-001	F	Final E (V)
SCANRATE	QUANT	3.99999E+001	A Real Number
STEPSIZE	QUANT	1.00000E+000	Step Size (mV)
CYCLES	IQUANT	3	Cycles (#)
IMODE	SELECTOR	1	I/E Range Mode
IRANGE	QUANT	3.00000E-001	Max Current (mA)
AREA	QUANT	1.00000E+000	Sample Area (cm^2)
EQDELAY	QUANT	0.00000E+000	Equil. Time (s)
IRCOMP	SELECTOR	0	IRComp
PFCOR	QUANT	5.00000E+001	PF Corr. (ohm)
SAMPLINGMODE	SELECTOR	2	Sampling Mode
EOC	QUANT	0.3246219	Open Circuit (V)
ELECTRODETYPE	SELECTOR	0	Electrode Type
STRIPPING	TOGGLE	F	Used for Stripping
SEQUENCER	TOGGLE	TRUE	Run as Sequence
PSTATMODEL	IQUANT	64	Pstat Model
PSTATSECTION	LABEL	IFC1010-36068	Pstat Section
PSTATSERIALNO	LABEL	36068	Pstat Serial Number
CTRLMODE	IQUANT	1	Control Mode
ELECTROMETER	IQUANT	0	RE=0 or CS=1
IESTAB	IQUANT	2	I/E Stability
CASPEED	IQUANT	4	Control Amp Speed
CONVENTION	IQUANT	1	Current Convention
ICHRANGE	IQUANT	2	Ich Range
ICHRANGEMODE	TOGGLE	F	Ich Auto Range
ICHOFFSETENABLE	TOGGLE	F	Ich Offset Enable
ICHOFFSET	QUANT	0	Ich Offset (V)
ICHFILTER	IQUANT	3	Ich Filter
VCHRANGE	IQUANT	2	Vch Range
VCHRANGEMODE	TOGGLE	F	Vch Auto Range
VCHOFFSETENABLE	TOGGLE	F	Vch Offset Enable
VCHOFFSET	QUANT	0	Vch Offset (V)
VCHFILTER	IQUANT	3	Vch Filter
IERANGELOWERLIMIT	IQUANT	4	I/E Range Lower Limit
IERANGEMODE	TOGGLE	F	I/E AutoRange
IERANGE	IQUANT	9	I/E Range
ACHSELECT	IQUANT	0	Ach Select
ACHRANGE	IQUANT	2	Ach Range
ACHOFFSETENABLE	TOGGLE	F	Ach Offset Enable
ACHOFFSET	QUANT	0	Ach Offset (V)
ACHFILTER	IQUANT	1	Ach Filter
SENSECABLEID	IQUANT	13	Sense Cable ID
PWRCABLEID	IQUANT	13	Power Cable ID
DCCALDATE	LABEL	8/11/2023	DC Calibration Date
ACCALDATE	LABEL	6/2/2023	AC Calibration Date
FRAMEWORKVERSION	LABEL	7.10.3	Framework Version
INSTRUMENTVERSION	LABEL	4.91	Instrument Version
COMMVERSION	LABEL	3.10	Communications Version
CPUPLDVERSION	LABEL	2.22	CPU PLD Version
CTRLPLDVERSION	LABEL	0.00	CTRL PLD Version
PSTATPLDVERSION	LABEL	0.00	PSTAT PLD Version
CURVE1	TABLE
	Pt	T	Vf	Im	Vu	Sig	Ach	IERange	Over	Temp
	#	s	V vs. Ref.	A	V	V	V	#	bits	deg C
	0	0.025	9.99889E-002	-2.21776E-006	0.00000E+000	1.00003E-001	0.00000E+000	9	...........	1467.52
	4	0.125	1.04003E-001	-1.22951E-006	0.00000E+000	1.04002E-001	0.00000E+000	9	...........	1467.52
	8	0.225	1.07987E-001	-9.89249E-007	0.00000E+000	1.08000E-001	0.00000E+000	9	...........	1467.52
	12	0.325	1.11975E-001	-7.90904E-007	0.00000E+000	1.11999E-001	0.00000E+000	9	...........	1467.52
	16	0.425	1.15980E-001	-6.22728E-007	0.00000E+000	1.15997E-001	0.00000E+000	9	...........	1467.52
	20	0.525	1.19978E-001	-4.65965E-007	0.00000E+000	1.19996E-001	0.00000E+000	9	...........	1467.88
	24	0.625	1.23966E-001	-3.22173E-007	0.00000E+000	1.23995E-001	0.00000E+000	9	...........	1467.88
	28	0.725	1.27995E-001	-1.83410E-007	0.00000E+000	1.28006E-001	0.00000E+000	9	...........	1467.88
	32	0.825	1.31998E-001	-6.68722E-008	0.00000E+000	1.32004E-001	0.00000E+000	9	...........	1467.88
	36	0.925	1.35978E-001	5.36032E-008	0.00000E+000	1.36003E-001	0.00000E+000	9	...........	1467.88
	40	1.025	1.39974E-001	1.64623E-007	0.00000E+000	1.40002E-001	0.00000E+000	9	...........	1467.88
	44	1.125	1.43987E-001	2.67589E-007	0.00000E+000	1.44000E-001	0.00000E+000	9	...........	1467.88
	48	1.225	1.47992E-001	3.68263E-007	0.00000E+000	1.47999E-001	0.00000E+000	9	...........	1467.88
	52	1.325	1.51970E-001	4.69894E-007	0.00000E+000	1.51997E-001	0.00000E+000	9	...........	1467.88
	56	1.425	1.55983E-001	5.72593E-007	0.00000E+000	1.55996E-001	0.00000E+000	9	...........	1467.88
	60	1.525	1.59971E-001	6.64479E-007	0.00000E+000	1.59995E-001	0.00000E+000	9	...........	1467.43
	64	1.625	1.63979E-001	7.61238E-007	0.00000E+000	1.64006E-001	0.00000E+000	9	...........	1467.43
	68	1.725	1.67999E-001	8.45292E-007	0.00000E+000	1.68004E-001	0.00000E+000	9	...........	1467.43
	72	1.825	1.71980E-001	9.33018E-007	0.00000E+000	1.72003E-001	0.00000E+000	9	...........	1467.43
	76	1.925	1.75978E-001	1.01965E-006	0.00000E+000	1.76002E-001	0.00000E+000	9	...........	1467.43
	80	2.025	1.79975E-001	1.09872E-006	0.00000E+000	1.80000E-001	0.00000E+000	9	...........	1467.43
	84	2.125	1.83979E-001	1.18371E-006	0.00000E+000	1.83999E-001	0.00000E+000	9	...........	1467.43
	88	2.225	1.87979E-001	1.26534E-006	0.00000E+000	1.87997E-001	0.00000E+000	9	...........	1467.43
	92	2.325	1.91993E-001	1.34057E-006	0.00000E+000	1.91996E-001	0.00000E+000	9	...........	1467.43
	96	2.425	1.95990E-001	1.42533E-006	0.00000E+000	1.95995E-001	0.00000E+000	9	...........	1467.43
	100	2.525	1.99995E-001	1.50098E-006	0.00000E+000	2.00006E-001	0.00000E+000	9	...........	1467.52
	104	2.625	2.03982E-001	1.57322E-006	0.00000E+000	2.04004E-001	0.00000E+000	9	...........	1467.52
	108	2.725	2.07983E-001	1.65195E-006	0.00000E+000	2.08003E-001	0.00000E+000	9	...........	1467.52
	112	2.825	2.11977E-001	1.72052E-006	0.00000E+000	2.12001E-001	0.00000E+000	9	...........	1467.52
	116	2.925	2.15969E-001	1.78484E-006	0.00000E+000	2.16000E-001	0.00000E+000	9	...........	1467.52
	120	3.025	2.19977E-001	1.86407E-006	0.00000E+000	2.19999E-001	0.00000E+000	9	...........	1467.52
	124	3.125	2.23975E-001	1.93894E-006	0.00000E+000	2.23997E-001	0.00000E+000	9	...........	1467.52
	128	3.225	2.27964E-001	2.00753E-006	0.00000E+000	2.27996E-001	0.00000E+000	9	...........	1467.52
	132	3.325	2.31975E-001	2.08184E-006	0.00000E+000	2.31994E-001	0.00000E+000	9	...........	1467.52
	136	3.425	2.35973E-001	2.15590E-006	0.00000E+000	2.36006E-001	0.00000E+000	9	...........	1467.52
	140	3.525	2.39973E-001	2.23033E-006	0.00000E+000	2.40004E-001	0.00000E+000	9	...........	1467.52
	144	3.625	2.43989E-001	2.30056E-006	0.00000E+000	2.44003E-001	0.00000E+000	9	...........	1467.52
	148	3.725	2.47952E-001	2.37332E-006	0.00000E+000	2.48001E-001	0.00000E+000	9	...........	1467.52
	152	3.825	2.51963E-001	2.44600E-006	0.00000E+000	2.52000E-001	0.00000E+000	9	...........	1467.52
	156	3.925	2.55979E-001	2.51931E-006	0.00000E+000	2.55999E-001	0.00000E+000	9	...........	1467.52
	160	4.025	2.59969E-001	2.59518E-006	0.00000E+000	2.59997E-001	0.00000E+000	9	...........	1467.52
	164	4.125	2.63964E-001	2.66490E-006	0.00000E+000	2.63996E-001	0.00000E+000	9	...........	1467.52
	168	4.225	2.67947E-001	2.75074E-006	0.00000E+000	2.67994E-001	0.00000E+000	9	...........	1467.52
	172	4.325	2.71984E-001	2.82916E-006	0.00000E+000	2.72006E-001	0.00000E+000	9	...........	1467.52
	176	4.425	2.75982E-001	2.90886E-006	0.00000E+000	2.76004E-001	0.00000E+000	9	...........	1467.52
	180	4.525	2.79962E-001	2.99376E-006	0.00000E+000	2.80003E-001	0.00000E+000	9	...........	1467.52
	184	4.625	2.83986E-001	3.07652E-006	0.00000E+000	2.84001E-001	0.00000E+000	9	...........	1467.52
	188	4.725	2.87979E-001	3.16111E-006	0.00000E+000	2.88000E-001	0.00000E+000	9	...........	1467.52
	192	4.825	2.91965E-001	3.24470E-006	0.00000E+000	2.91999E-001	0.00000E+000	9	...........	1467.52
	196	4.925	2.95984E-001	3.33894E-006	0.00000E+000	2.95997E-001	0.00000E+000	9	...........	1467.52
	200	5.025	2.99970E-001	3.43697E-006	0.00000E+000	2.99996E-001	0.00000E+000	9	...........	1467.52
[...]
	1069	26.75	2.30988E-001	-3.27980E-007	0.00000E+000	2.30995E-001	0.00000E+000	9	...........	1467.43
	1073	26.85	2.26969E-001	-4.12457E-007	0.00000E+000	2.26996E-001	0.00000E+000	9	...........	1467.43
	1077	26.95	2.22984E-001	-4.99916E-007	0.00000E+000	2.22998E-001	0.00000E+000	9	...........	1467.43
	1081	27.05	2.18989E-001	-5.89088E-007	0.00000E+000	2.18999E-001	0.00000E+000	9	...........	1467.43
	1085	27.15	2.14983E-001	-6.80974E-007	0.00000E+000	2.15000E-001	0.00000E+000	9	...........	1467.43
	1089	27.25	2.10999E-001	-7.66230E-007	0.00000E+000	2.11002E-001	0.00000E+000	9	...........	1467.43
	1093	27.35	2.06999E-001	-8.54334E-007	0.00000E+000	2.07003E-001	0.00000E+000	9	...........	1467.43
	1097	27.45	2.02991E-001	-9.40769E-007	0.00000E+000	2.03005E-001	0.00000E+000	9	...........	1467.43
	1101	27.55	1.99013E-001	-1.02044E-006	0.00000E+000	1.99006E-001	0.00000E+000	9	...........	1467.52
	1105	27.65	1.95002E-001	-1.11813E-006	0.00000E+000	1.94995E-001	0.00000E+000	9	...........	1467.52
	1109	27.75	1.90979E-001	-1.21224E-006	0.00000E+000	1.90996E-001	0.00000E+000	9	...........	1467.52
	1113	27.85	1.87001E-001	-1.30337E-006	0.00000E+000	1.86998E-001	0.00000E+000	9	...........	1467.52
	1117	27.95	1.82997E-001	-1.39419E-006	0.00000E+000	1.82999E-001	0.00000E+000	9	...........	1467.52
	1121	28.05	1.78978E-001	-1.48946E-006	0.00000E+000	1.79000E-001	0.00000E+000	9	...........	1467.52
	1125	28.15	1.74995E-001	-1.58237E-006	0.00000E+000	1.75002E-001	0.00000E+000	9	...........	1467.52
	1129	28.25	1.70996E-001	-1.67103E-006	0.00000E+000	1.71003E-001	0.00000E+000	9	...........	1467.52
	1133	28.35	1.67014E-001	-1.76725E-006	0.00000E+000	1.67005E-001	0.00000E+000	9	...........	1467.52
	1137	28.45	1.62994E-001	-1.86121E-006	0.00000E+000	1.63006E-001	0.00000E+000	9	...........	1467.52
	1141	28.55	1.58978E-001	-1.94871E-006	0.00000E+000	1.58995E-001	0.00000E+000	9	...........	1467.43
	1145	28.65	1.54987E-001	-2.03900E-006	0.00000E+000	1.54996E-001	0.00000E+000	9	...........	1467.43
	1149	28.75	1.50981E-001	-2.12988E-006	0.00000E+000	1.50998E-001	0.00000E+000	9	...........	1467.43
	1153	28.85	1.47007E-001	-2.21966E-006	0.00000E+000	1.46999E-001	0.00000E+000	9	...........	1467.43
	1157	28.95	1.43012E-001	-2.31748E-006	0.00000E+000	1.43001E-001	0.00000E+000	9	...........	1467.43
	1161	29.05	1.38999E-001	-2.40661E-006	0.00000E+000	1.39002E-001	0.00000E+000	9	...........	1467.43
	1165	29.15	1.34997E-001	-2.49740E-006	0.00000E+000	1.35003E-001	0.00000E+000	9	...........	1467.43
	1169	29.25	1.31015E-001	-2.58878E-006	0.00000E+000	1.31005E-001	0.00000E+000	9	...........	1467.43
	1173	29.35	1.27000E-001	-2.68471E-006	0.00000E+000	1.27006E-001	0.00000E+000	9	...........	1467.43
	1177	29.45	1.22987E-001	-2.76717E-006	0.00000E+000	1.22995E-001	0.00000E+000	9	...........	1467.43
	1181	29.55	1.18997E-001	-2.85676E-006	0.00000E+000	1.18996E-001	0.00000E+000	9	...........	1467.79
	1185	29.65	1.15000E-001	-2.94974E-006	0.00000E+000	1.14998E-001	0.00000E+000	9	...........	1467.79
	1189	29.75	1.10998E-001	-3.04051E-006	0.00000E+000	1.10999E-001	0.00000E+000	9	...........	1467.79
	1193	29.85	1.06998E-001	-3.13943E-006	0.00000E+000	1.07001E-001	0.00000E+000	9	...........	1467.79
	1197	29.95	1.03018E-001	-3.23708E-006	0.00000E+000	1.03002E-001	0.00000E+000	9	...........	1467.79
	1200	30.025	1.00005E-001	-3.30077E-006	0.00000E+000	1.00003E-001	0.00000E+000	9	...........	1467.79
CURVE4	TABLE
	Pt	T	Vf	Im	Vu	Sig	Ach	IERange	Over	Temp
	#	s	V vs. Ref.	A	V	V	V	#	bits	deg C
	1201	30.05	9.99940E-002	-2.65448E-006	0.00000E+000	1.00003E-001	0.00000E+000	9	...........	1467.79