Folder: gamry_post_processing_/input/ECSA_test

File: CV_ECSA_#1_#1.DTA
EXPLAIN
TAG	CV
TITLE	LABEL	ECSA	Test Identifier
DATE	LABEL	2/13/2024	Date
TIME	LABEL	8:45:01	Time
NOTES	NOTES	1	Notes...

PSTAT	PSTAT	IFC1010-36068	Potentiostat
VINIT	POTEN	1.00000E-001	F	Initial E (V)
VLIMIT1	POTEN	3.00000E-001	F	Scan Limit 1 (V)
VLIMIT2	POTEN	1.00000E-001	F	Scan Limit 2 (V)
VFINAL	POTEN	1.00000E-001	F	Final E (V)
SCANRATE	QUANT	1.00000E+001	A Real Number
STEPSIZE	QUANT	1.00000E+000	Step Size (mV)
CYCLES	IQUANT	3	Cycles (#)
IMODE	SELECTOR	1	I/E Range Mode
IRANGE	QUANT	3.00000E-001	Max Current (mA)
AREA	QUANT	1.00000E+000	Sample Area (cm^2)
EQDELAY	QUANT	0.00000E+000	Equil. Time (s)
IRCOMP	SELECTOR	0	IRComp
PFCOR	QUANT	5.00000E+001	PF Corr. (ohm)
SAMPLINGMODE	SELECTOR	2	Sampling Mode
EOC	QUANT	0.3246219	Open Circuit (V)
ELECTRODETYPE	SELECTOR	0	Electrode Type
STRIPPING	TOGGLE	F	Used for Stripping
SEQUENCER	TOGGLE	TRUE	Run as Sequence
PSTATMODEL	IQUANT	64	Pstat Model
PSTATSECTION	LABEL	IFC1010-36068	Pstat Section
PSTATSERIALNO	LABEL	36068	Pstat Serial Number
CTRLMODE	IQUANT	1	Control Mode
ELECTROMETER	IQUANT	0	RE=0 or CS=1
IESTAB	IQUANT	2	I/E Stability
CASPEED	IQUANT	4	Control Amp Speed
CONVENTION	IQUANT	1	Current Convention
ICHRANGE	IQUANT	2	Ich Range
ICHRANGEMODE	TOGGLE	F	Ich Auto Range
ICHOFFSETENABLE	TOGGLE	F	Ich Offset Enable
ICHOFFSET	QUANT	0	Ich Offset (V)
ICHFILTER	IQUANT	3	Ich Filter
VCHRANGE	IQUANT	2	Vch Range
VCHRANGEMODE	TOGGLE	F	Vch Auto Range
VCHOFFSETENABLE	TOGGLE	F	Vch Offset Enable
VCHOFFSET	QUANT	0	Vch Offset (V)
VCHFILTER	IQUANT	3	Vch Filter
IERANGELOWERLIMIT	IQUANT	4	I/E Range Lower Limit
IERANGEMODE	TOGGLE	F	I/E AutoRange
IERANGE	IQUANT	9	I/E Range
ACHSELECT	IQUANT	0	Ach Select
ACHRANGE	IQUANT	2	Ach Range
ACHOFFSETENABLE	TOGGLE	F	Ach Offset Enable
ACHOFFSET	QUANT	0	Ach Offset (V)
ACHFILTER	IQUANT	1	Ach Filter
SENSECABLEID	IQUANT	13	Sense Cable ID
PWRCABLEID	IQUANT	13	Power Cable ID
DCCALDATE	LABEL	8/11/2023	DC Calibration Date
ACCALDATE	LABEL	6/2/2023	AC Calibration Date
FRAMEWORKVERSION	LABEL	7.10.3	Framework Version
INSTRUMENTVERSION	LABEL	4.91	Instrument Version
COMMVERSION	LABEL	3.10	Communications Version
CPUPLDVERSION	LABEL	2.22	CPU PLD Version
CTRLPLDVERSION	LABEL	0.00	CTRL PLD Version
PSTATPLDVERSION	LABEL	0.00	PSTAT PLD Version
CURVE1	TABLE
	Pt	T	Vf	Im	Vu	Sig	Ach	IERange	Over	Temp
	#	s	V vs. Ref.	A	V	V	V	#	bits	deg C
	0	0.1	9.99942E-002	-1.76129E-006	0.00000E+000	1.00003E-001	0.00000E+000	9	...........	1468.52
	4	0.5	1.03997E-001	-4.02711E-006	0.00000E+000	1.04002E-001	0.00000E+000	9	...........	1468.52
	8	0.9	1.07988E-001	-4.23467E-006	0.00000E+000	1.08000E-001	0.00000E+000	9	...........	1468.52
	12	1.3	1.11974E-001	-4.24105E-006	0.00000E+000	1.11999E-001	0.00000E+000	9	...........	1468.52
	16	1.7	1.15995E-001	-4.18222E-006	0.00000E+000	1.15997E-001	0.00000E+000	9	...........	1467.88
	20	2.1	1.19983E-001	-4.09026E-006	0.00000E+000	1.19996E-001	0.00000E+000	9	...........	1467.88
	24	2.5	1.23973E-001	-3.98028E-006	0.00000E+000	1.23995E-001	0.00000E+000	9	...........	1467.88
	28	2.9	1.27995E-001	-3.86485E-006	0.00000E+000	1.28006E-001	0.00000E+000	9	...........	1467.88
	32	3.3	1.31998E-001	-3.73393E-006	0.00000E+000	1.32004E-001	0.00000E+000	9	...........	1467.88
	36	3.7	1.35985E-001	-3.59835E-006	0.00000E+000	1.36003E-001	0.00000E+000	9	...........	1467.97
	40	4.1	1.39974E-001	-3.45620E-006	0.00000E+000	1.40002E-001	0.00000E+000	9	...........	1467.97
	44	4.5	1.43985E-001	-3.30960E-006	0.00000E+000	1.44000E-001	0.00000E+000	9	...........	1467.97
	48	4.9	1.47991E-001	-3.15977E-006	0.00000E+000	1.47999E-001	0.00000E+000	9	...........	1467.88
	52	5.3	1.51967E-001	-3.00587E-006	0.00000E+000	1.51997E-001	0.00000E+000	9	...........	1467.88
	56	5.7	1.55980E-001	-2.84590E-006	0.00000E+000	1.55996E-001	0.00000E+000	9	...........	1467.88
	60	6.1	1.59975E-001	-2.68752E-006	0.00000E+000	1.59995E-001	0.00000E+000	9	...........	1467.88
	64	6.5	1.63985E-001	-2.51078E-006	0.00000E+000	1.64006E-001	0.00000E+000	9	...........	1467.88
	68	6.9	1.68000E-001	-2.32936E-006	0.00000E+000	1.68004E-001	0.00000E+000	9	...........	1467.79
	72	7.3	1.71979E-001	-2.15708E-006	0.00000E+000	1.72003E-001	0.00000E+000	9	...........	1467.79
	76	7.7	1.75980E-001	-1.98016E-006	0.00000E+000	1.76002E-001	0.00000E+000	9	...........	1467.43
	80	8.1	1.79976E-001	-1.79539E-006	0.00000E+000	1.80000E-001	0.00000E+000	9	...........	1467.43
	84	8.5	1.83984E-001	-1.61317E-006	0.00000E+000	1.83999E-001	0.00000E+000	9	...........	1467.43
	88	8.9	1.87982E-001	-1.43153E-006	0.00000E+000	1.87997E-001	0.00000E+000	9	...........	1467.97
	92	9.3	1.92004E-001	-1.24999E-006	0.00000E+000	1.91996E-001	0.00000E+000	9	...........	1467.97
	96	9.7	1.95983E-001	-1.06350E-006	0.00000E+000	1.95995E-001	0.00000E+000	9	...........	1467.79
	100	10.1	1.99990E-001	-8.82577E-007	0.00000E+000	2.00006E-001	0.00000E+000	9	...........	1467.79
	104	10.5	2.03973E-001	-7.09180E-007	0.00000E+000	2.04004E-001	0.00000E+000	9	...........	1467.79
	108	10.9	2.07989E-001	-5.33848E-007	0.00000E+000	2.08003E-001	0.00000E+000	9	...........	1467.61
	112	11.3	2.11984E-001	-3.66252E-007	0.00000E+000	2.12001E-001	0.00000E+000	9	...........	1467.61
	116	11.7	2.15963E-001	-2.01794E-007	0.00000E+000	2.16000E-001	0.00000E+000	9	...........	1467.43
	120	12.1	2.19971E-001	-4.66945E-008	0.00000E+000	2.19999E-001	0.00000E+000	9	...........	1467.43
	124	12.5	2.23978E-001	1.09945E-007	0.00000E+000	2.23997E-001	0.00000E+000	9	...........	1467.43
	128	12.9	2.27963E-001	2.61594E-007	0.00000E+000	2.27996E-001	0.00000E+000	9	...........	1467.88
	132	13.3	2.31979E-001	3.97913E-007	0.00000E+000	2.31994E-001	0.00000E+000	9	...........	1467.88
	136	13.7	2.35970E-001	5.30620E-007	0.00000E+000	2.36006E-001	0.00000E+000	9	...........	1467.88
	140	14.1	2.39980E-001	6.59821E-007	0.00000E+000	2.40004E-001	0.00000E+000	9	...........	1467.88
	144	14.5	2.43992E-001	7.74836E-007	0.00000E+000	2.44003E-001	0.00000E+000	9	...........	1467.88
	148	14.9	2.47971E-001	8.86867E-007	0.00000E+000	2.48001E-001	0.00000E+000	9	...........	1467.52
	152	15.3	2.51974E-001	9.93464E-007	0.00000E+000	2.52000E-001	0.00000E+000	9	...........	1467.52
	156	15.7	2.55964E-001	1.09196E-006	0.00000E+000	2.55999E-001	0.00000E+000	9	...........	1467.43
	160	16.1	2.59961E-001	1.18570E-006	0.00000E+000	2.59997E-001	0.00000E+000	9	...........	1467.43
	164	16.5	2.63967E-001	1.28367E-006	0.00000E+000	2.63996E-001	0.00000E+000	9	...........	1467.43
	168	16.9	2.67949E-001	1.37718E-006	0.00000E+000	2.67994E-001	0.00000E+000	9	...........	1467.88
	172	17.3	2.71980E-001	1.46177E-006	0.00000E+000	2.72006E-001	0.00000E+000	9	...........	1467.88
	176	17.7	2.75976E-001	1.54720E-006	0.00000E+000	2.76004E-001	0.00000E+000	9	...........	1467.88
	180	18.1	2.79965E-001	1.63442E-006	0.00000E+000	2.80003E-001	0.00000E+000	9	...........	1467.88
	184	18.5	2.83984E-001	1.71388E-006	0.00000E+000	2.84001E-001	0.00000E+000	9	...........	1467.88
	188	18.9	2.87988E-001	1.79752E-006	0.00000E+000	2.88000E-001	0.00000E+000	9	...........	1467.52
	192	19.3	2.91966E-001	1.87990E-006	0.00000E+000	2.91999E-001	0.00000E+000	9	...........	1467.52
	196	19.7	2.95991E-001	1.95972E-006	0.00000E+000	2.95997E-001	0.00000E+000	9	...........	1467.52
	200	20.1	2.99973E-001	2.04292E-006	0.00000E+000	2.99996E-001	0.00000E+000	9	...........	1467.52
	204	20.5	2.95992E-001	1.31689E-006	0.00000E+000	2.95997E-001	0.00000E+000	9	...........	1467.52
[...]
	1069	107	2.30978E-001	-1.90078E-006	0.00000E+000	2.30995E-001	0.00000E+000	9	...........	1467.52
	1073	107.4	2.26963E-001	-2.08263E-006	0.00000E+000	2.26996E-001	0.00000E+000	9	...........	1467.52
	1077	107.8	2.22971E-001	-2.25769E-006	0.00000E+000	2.22998E-001	0.00000E+000	9	...........	1467.52
	1081	108.2	2.18972E-001	-2.44916E-006	0.00000E+000	2.18999E-001	0.00000E+000	9	...........	1467.52
	1085	108.6	2.14971E-001	-2.63070E-006	0.00000E+000	2.15000E-001	0.00000E+000	9	...........	1467.85
	1089	109	2.10979E-001	-2.82846E-006	0.00000E+000	2.11002E-001	0.00000E+000	9	...........	1467.88
	1093	109.4	2.06976E-001	-3.02183E-006	0.00000E+000	2.07003E-001	0.00000E+000	9	...........	1467.88
	1097	109.8	2.02983E-001	-3.22660E-006	0.00000E+000	2.03005E-001	0.00000E+000	9	...........	1467.70
	1101	110.2	1.99002E-001	-3.44507E-006	0.00000E+000	1.99006E-001	0.00000E+000	9	...........	1467.70
	1105	110.6	1.94986E-001	-3.67105E-006	0.00000E+000	1.94995E-001	0.00000E+000	9	...........	1467.54
	1109	111	1.90966E-001	-3.88292E-006	0.00000E+000	1.90996E-001	0.00000E+000	9	...........	1467.52
	1113	111.4	1.86985E-001	-4.11228E-006	0.00000E+000	1.86998E-001	0.00000E+000	9	...........	1467.52
	1117	111.8	1.82984E-001	-4.33698E-006	0.00000E+000	1.82999E-001	0.00000E+000	9	...........	1467.52
	1121	112.2	1.78968E-001	-4.56450E-006	0.00000E+000	1.79000E-001	0.00000E+000	9	...........	1467.52
	1125	112.6	1.74988E-001	-4.78509E-006	0.00000E+000	1.75002E-001	0.00000E+000	9	...........	1467.93
	1129	113	1.70989E-001	-5.00181E-006	0.00000E+000	1.71003E-001	0.00000E+000	9	...........	1467.97
	1133	113.4	1.67005E-001	-5.21854E-006	0.00000E+000	1.67005E-001	0.00000E+000	9	...........	1467.97
	1137	113.8	1.62985E-001	-5.43807E-006	0.00000E+000	1.63006E-001	0.00000E+000	9	...........	1467.52
	1141	114.2	1.58970E-001	-5.65071E-006	0.00000E+000	1.58995E-001	0.00000E+000	9	...........	1467.52
	1145	114.6	1.54986E-001	-5.86013E-006	0.00000E+000	1.54996E-001	0.00000E+000	9	...........	1467.52
	1149	115	1.50966E-001	-6.06873E-006	0.00000E+000	1.50998E-001	0.00000E+000	9	...........	1467.52
	1153	115.4	1.46991E-001	-6.27982E-006	0.00000E+000	1.46999E-001	0.00000E+000	9	...........	1467.52
	1157	115.8	1.43000E-001	-6.48529E-006	0.00000E+000	1.43001E-001	0.00000E+000	9	...........	1467.52
	1161	116.2	1.38986E-001	-6.69429E-006	0.00000E+000	1.39002E-001	0.00000E+000	9	...........	1467.52
	1165	116.6	1.34996E-001	-6.91376E-006	0.00000E+000	1.35003E-001	0.00000E+000	9	...........	1467.94
	1169	117	1.30997E-001	-7.14235E-006	0.00000E+000	1.31005E-001	0.00000E+000	9	...........	1467.97
	1173	117.4	1.26980E-001	-7.36137E-006	0.00000E+000	1.27006E-001	0.00000E+000	9	...........	1467.97
	1177	117.8	1.22978E-001	-7.58824E-006	0.00000E+000	1.22995E-001	0.00000E+000	9	...........	1467.52
	1181	118.2	1.18988E-001	-7.81989E-006	0.00000E+000	1.18996E-001	0.00000E+000	9	...........	1467.52
	1185	118.6	1.14994E-001	-8.04322E-006	0.00000E+000	1.14998E-001	0.00000E+000	9	...........	1467.52
	1189	119	1.10983E-001	-8.29566E-006	0.00000E+000	1.10999E-001	0.00000E+000	9	...........	1467.52
	1193	119.4	1.06982E-001	-8.53520E-006	0.00000E+000	1.07001E-001	0.00000E+000	9	...........	1467.52
	1197	119.8	1.03005E-001	-8.76510E-006	0.00000E+000	1.03002E-001	0.00000E+000	9	...........	1467.52
	1200	120.1	9.99876E-002	-8.93944E-006	0.00000E+000	1.00003E-001	0.00000E+000	9	...........	1467.52
CURVE4	TABLE
	Pt	T	Vf	Im	Vu	Sig	Ach	IERange	Over	Temp
	#	s	V vs. Ref.	A	V	V	V	#	bits	deg C
	1201	120.2	9.99911E-002	-8.71136E-006	0.00000E+000	1.00003E-001	0.00000E+000	9	...........	1467.52

File: CV_ECSA_#1_#2.DTA
EXPLAIN
TAG	CV
TITLE	LABEL	ECSA	Test Identifier
DATE	LABEL	2/13/2024	Date
TIME	LABEL	8:47:01	Time
NOTES	NOTES	1	Notes...

PSTAT	PSTAT	IFC1010-36068	Potentiostat
VINIT	POTEN	1.00000E-001	F	Initial E (V)
VLIMIT1	POTEN	3.00000E-001	F	Scan Limit 1 (V)
VLIMIT2	POTEN	1.00000E-001	F	Scan Limit 2 (V)
VFINAL	POTEN	1.00000E-001	F	Final E (V)
SCANRATE	QUANT	2.00000E+001	A Real Number
STEPSIZE	QUANT	1.00000E+000	Step Size (mV)
CYCLES	IQUANT	3	Cycles (#)
IMODE	SELECTOR	1	I/E Range Mode
IRANGE	QUANT	3.00000E-001	Max Current (mA)
AREA	QUANT	1.00000E+000	Sample Area (cm^2)
EQDELAY	QUANT	0.00000E+000	Equil. Time (s)
IRCOMP	SELECTOR	0	IRComp
PFCOR	QUANT	5.00000E+001	PF Corr. (ohm)
SAMPLINGMODE	SELECTOR	2	Sampling Mode
EOC	QUANT	0.3246219	Open Circuit (V)
ELECTRODETYPE	SELECTOR	0	Electrode Type
STRIPPING	TOGGLE	F	Used for Stripping
SEQUENCER	TOGGLE	TRUE	Run as Sequence
PSTATMODEL	IQUANT	64	Pstat Model
PSTATSECTION	LABEL	IFC1010-36068	Pstat Section
PSTATSERIALNO	LABEL	36068	Pstat Serial Number
CTRLMODE	IQUANT	1	Control Mode
ELECTROMETER	IQUANT	0	RE=0 or CS=1
IESTAB	IQUANT	2	I/E Stability
CASPEED	IQUANT	4	Control Amp Speed
CONVENTION	IQUANT	1	Current Convention
ICHRANGE	IQUANT	2	Ich Range
ICHRANGEMODE	TOGGLE	F	Ich Auto Range
ICHOFFSETENABLE	TOGGLE	F	Ich Offset Enable
ICHOFFSET	QUANT	0	Ich Offset (V)
ICHFILTER	IQUANT	3	Ich Filter
VCHRANGE	IQUANT	2	Vch Range
VCHRANGEMODE	TOGGLE	F	Vch Auto Range
VCHOFFSETENABLE	TOGGLE	F	Vch Offset Enable
VCHOFFSET	QUANT	0	Vch Offset (V)
VCHFILTER	IQUANT	3	Vch Filter
IERANGELOWERLIMIT	IQUANT	4	I/E Range Lower Limit
IERANGEMODE	TOGGLE	F	I/E AutoRange
IERANGE	IQUANT	9	I/E Range
ACHSELECT	IQUANT	0	Ach Select
ACHRANGE	IQUANT	2	Ach Range
ACHOFFSETENABLE	TOGGLE	F	Ach Offset Enable
ACHOFFSET	QUANT	0	Ach Offset (V)
ACHFILTER	IQUANT	1	Ach Filter
SENSECABLEID	IQUANT	13	Sense Cable ID
PWRCABLEID	IQUANT	13	Power Cable ID
DCCALDATE	LABEL	8/11/2023	DC Calibration Date
ACCALDATE	LABEL	6/2/2023	AC Calibration Date
FRAMEWORKVERSION	LABEL	7.10.3	Framework Version
INSTRUMENTVERSION	LABEL	4.91	Instrument Version
COMMVERSION	LABEL	3.10	Communications Version
CPUPLDVERSION	LABEL	2.22	CPU PLD Version
CTRLPLDVERSION	LABEL	0.00	CTRL PLD Version
PSTATPLDVERSION	LABEL	0.00	PSTAT PLD Version
CURVE1	TABLE
	Pt	T	Vf	Im	Vu	Sig	Ach	IERange	Over	Temp
	#	s	V vs. Ref.	A	V	V	V	#	bits	deg C
	0	0.05	9.99937E-002	-8.80573E-006	0.00000E+000	1.00003E-001	0.00000E+000	9	...........	1467.52
	4	0.25	1.03997E-001	-7.78890E-006	0.00000E+000	1.04002E-001	0.00000E+000	9	...........	1467.64
	8	0.45	1.07981E-001	-7.33454E-006	0.00000E+000	1.08000E-001	0.00000E+000	9	...........	1467.88
	12	0.65	1.11975E-001	-6.92589E-006	0.00000E+000	1.11999E-001	0.00000E+000	9	...........	1467.88
	16	0.85	1.15992E-001	-6.54022E-006	0.00000E+000	1.15997E-001	0.00000E+000	9	...........	1467.88
	20	1.05	1.19982E-001	-6.19631E-006	0.00000E+000	1.19996E-001	0.00000E+000	9	...........	1467.88
	24	1.25	1.23961E-001	-5.86688E-006	0.00000E+000	1.23995E-001	0.00000E+000	9	...........	1467.88
	28	1.45	1.27994E-001	-5.55990E-006	0.00000E+000	1.28006E-001	0.00000E+000	9	...........	1467.88
	32	1.65	1.31996E-001	-5.26908E-006	0.00000E+000	1.32004E-001	0.00000E+000	9	...........	1467.88
	36	1.85	1.35987E-001	-4.99287E-006	0.00000E+000	1.36003E-001	0.00000E+000	9	...........	1467.88
	40	2.05	1.39975E-001	-4.72691E-006	0.00000E+000	1.40002E-001	0.00000E+000	9	...........	1467.88
	44	2.25	1.43981E-001	-4.46928E-006	0.00000E+000	1.44000E-001	0.00000E+000	9	...........	1467.88
	48	2.45	1.47984E-001	-4.21912E-006	0.00000E+000	1.47999E-001	0.00000E+000	9	...........	1467.88
	52	2.65	1.51968E-001	-3.98525E-006	0.00000E+000	1.51997E-001	0.00000E+000	9	...........	1467.88
	56	2.85	1.55985E-001	-3.74220E-006	0.00000E+000	1.55996E-001	0.00000E+000	9	...........	1467.88
	60	3.05	1.59977E-001	-3.50897E-006	0.00000E+000	1.59995E-001	0.00000E+000	9	...........	1467.88
	64	3.25	1.63990E-001	-3.28643E-006	0.00000E+000	1.64006E-001	0.00000E+000	9	...........	1467.85
	68	3.45	1.67989E-001	-3.05801E-006	0.00000E+000	1.68004E-001	0.00000E+000	9	...........	1467.79
	72	3.65	1.71980E-001	-2.84139E-006	0.00000E+000	1.72003E-001	0.00000E+000	9	...........	1467.79
	76	3.85	1.75984E-001	-2.62745E-006	0.00000E+000	1.76002E-001	0.00000E+000	9	...........	1467.79
	80	4.05	1.79977E-001	-2.42011E-006	0.00000E+000	1.80000E-001	0.00000E+000	9	...........	1467.79
	84	4.25	1.83988E-001	-2.20961E-006	0.00000E+000	1.83999E-001	0.00000E+000	9	...........	1467.76
	88	4.45	1.87977E-001	-1.99838E-006	0.00000E+000	1.87997E-001	0.00000E+000	9	...........	1467.70
	92	4.65	1.91998E-001	-1.80700E-006	0.00000E+000	1.91996E-001	0.00000E+000	9	...........	1467.70
	96	4.85	1.95983E-001	-1.60337E-006	0.00000E+000	1.95995E-001	0.00000E+000	9	...........	1467.70
	100	5.05	1.99988E-001	-1.42026E-006	0.00000E+000	2.00006E-001	0.00000E+000	9	...........	1467.70
	104	5.25	2.03973E-001	-1.22757E-006	0.00000E+000	2.04004E-001	0.00000E+000	9	...........	1467.67
	108	5.45	2.07979E-001	-1.04534E-006	0.00000E+000	2.08003E-001	0.00000E+000	9	...........	1467.61
	112	5.65	2.11978E-001	-8.69816E-007	0.00000E+000	2.12001E-001	0.00000E+000	9	...........	1467.61
	116	5.85	2.15964E-001	-7.05587E-007	0.00000E+000	2.16000E-001	0.00000E+000	9	...........	1467.61
	120	6.05	2.19968E-001	-5.41759E-007	0.00000E+000	2.19999E-001	0.00000E+000	9	...........	1467.61
	124	6.25	2.23971E-001	-3.83189E-007	0.00000E+000	2.23997E-001	0.00000E+000	9	...........	1467.55
	128	6.45	2.27960E-001	-2.41505E-007	0.00000E+000	2.27996E-001	0.00000E+000	9	...........	1467.43
	132	6.65	2.31975E-001	-9.15725E-008	0.00000E+000	2.31994E-001	0.00000E+000	9	...........	1467.43
	136	6.85	2.35975E-001	4.73987E-008	0.00000E+000	2.36006E-001	0.00000E+000	9	...........	1467.43
	140	7.05	2.39976E-001	1.81590E-007	0.00000E+000	2.40004E-001	0.00000E+000	9	...........	1467.43
	144	7.25	2.43987E-001	3.15114E-007	0.00000E+000	2.44003E-001	0.00000E+000	9	...........	1467.60
	148	7.45	2.47981E-001	4.41667E-007	0.00000E+000	2.48001E-001	0.00000E+000	9	...........	1467.88
	152	7.65	2.51969E-001	5.55148E-007	0.00000E+000	2.52000E-001	0.00000E+000	9	...........	1467.88
	156	7.85	2.55963E-001	6.79245E-007	0.00000E+000	2.55999E-001	0.00000E+000	9	...........	1467.88
	160	8.05	2.59964E-001	7.87745E-007	0.00000E+000	2.59997E-001	0.00000E+000	9	...........	1467.88
	164	8.25	2.63959E-001	8.93032E-007	0.00000E+000	2.63996E-001	0.00000E+000	9	...........	1467.92
	168	8.45	2.67946E-001	1.00543E-006	0.00000E+000	2.67994E-001	0.00000E+000	9	...........	1467.97
	172	8.65	2.71973E-001	1.11946E-006	0.00000E+000	2.72006E-001	0.00000E+000	9	...........	1467.97
	176	8.85	2.75981E-001	1.21539E-006	0.00000E+000	2.76004E-001	0.00000E+000	9	...........	1467.97
	180	9.05	2.79961E-001	1.31872E-006	0.00000E+000	2.80003E-001	0.00000E+000	9	...........	1467.97
	184	9.25	2.83990E-001	1.42067E-006	0.00000E+000	2.84001E-001	0.00000E+000	9	...........	1467.80
	188	9.45	2.87986E-001	1.51751E-006	0.00000E+000	2.88000E-001	0.00000E+000	9	...........	1467.52
	192	9.65	2.91965E-001	1.61277E-006	0.00000E+000	2.91999E-001	0.00000E+000	9	...........	1467.52
	196	9.85	2.95984E-001	1.71720E-006	0.00000E+000	2.95997E-001	0.00000E+000	9	...........	1467.52
	200	10.05	2.99973E-001	1.81851E-006	0.00000E+000	2.99996E-001	0.00000E+000	9	...........	1467.52
[...]
	1065	53.3	2.34991E-001	-1.79190E-006	0.00000E+000	2.35006E-001	0.00000E+000	9	...........	1467.79
	1069	53.5	2.30977E-001	-1.95895E-006	0.00000E+000	2.30995E-001	0.00000E+000	9	...........	1467.79
	1073	53.7	2.26964E-001	-2.13238E-006	0.00000E+000	2.26996E-001	0.00000E+000	9	...........	1467.79
	1077	53.9	2.22984E-001	-2.31713E-006	0.00000E+000	2.22998E-001	0.00000E+000	9	...........	1467.79
	1081	54.1	2.18979E-001	-2.50662E-006	0.00000E+000	2.18999E-001	0.00000E+000	9	...........	1467.79
	1085	54.3	2.14968E-001	-2.69999E-006	0.00000E+000	2.15000E-001	0.00000E+000	9	...........	1467.52
	1089	54.5	2.10986E-001	-2.89840E-006	0.00000E+000	2.11002E-001	0.00000E+000	9	...........	1467.52
	1093	54.7	2.06979E-001	-3.10104E-006	0.00000E+000	2.07003E-001	0.00000E+000	9	...........	1467.52
	1097	54.9	2.02980E-001	-3.30784E-006	0.00000E+000	2.03005E-001	0.00000E+000	9	...........	1467.52
	1101	55.1	1.99004E-001	-3.52405E-006	0.00000E+000	1.99006E-001	0.00000E+000	9	...........	1467.52
	1105	55.3	1.94993E-001	-3.75299E-006	0.00000E+000	1.94995E-001	0.00000E+000	9	...........	1467.52
	1109	55.5	1.90978E-001	-3.97541E-006	0.00000E+000	1.90996E-001	0.00000E+000	9	...........	1467.52
	1113	55.7	1.86984E-001	-4.20946E-006	0.00000E+000	1.86998E-001	0.00000E+000	9	...........	1467.52
	1117	55.9	1.82987E-001	-4.45019E-006	0.00000E+000	1.82999E-001	0.00000E+000	9	...........	1467.52
	1121	56.1	1.78978E-001	-4.68883E-006	0.00000E+000	1.79000E-001	0.00000E+000	9	...........	1467.52
	1125	56.3	1.74976E-001	-4.92902E-006	0.00000E+000	1.75002E-001	0.00000E+000	9	...........	1467.97
	1129	56.5	1.70977E-001	-5.16985E-006	0.00000E+000	1.71003E-001	0.00000E+000	9	...........	1467.97
	1133	56.7	1.67012E-001	-5.40494E-006	0.00000E+000	1.67005E-001	0.00000E+000	9	...........	1467.97
	1137	56.9	1.62980E-001	-5.64972E-006	0.00000E+000	1.63006E-001	0.00000E+000	9	...........	1467.97
	1141	57.1	1.58981E-001	-5.88484E-006	0.00000E+000	1.58995E-001	0.00000E+000	9	...........	1467.97
	1145	57.3	1.54996E-001	-6.12697E-006	0.00000E+000	1.54996E-001	0.00000E+000	9	...........	1467.61
	1149	57.5	1.50965E-001	-6.37525E-006	0.00000E+000	1.50998E-001	0.00000E+000	9	...........	1467.61
	1153	57.7	1.46996E-001	-6.61264E-006	0.00000E+000	1.46999E-001	0.00000E+000	9	...........	1467.61
	1157	57.9	1.42999E-001	-6.85832E-006	0.00000E+000	1.43001E-001	0.00000E+000	9	...........	1467.61
	1161	58.1	1.38983E-001	-7.10305E-006	0.00000E+000	1.39002E-001	0.00000E+000	9	...........	1467.61
	1165	58.3	1.35000E-001	-7.36287E-006	0.00000E+000	1.35003E-001	0.00000E+000	9	...........	1467.52
	1169	58.5	1.31004E-001	-7.62644E-006	0.00000E+000	1.31005E-001	0.00000E+000	9	...........	1467.52
	1173	58.7	1.26986E-001	-7.88598E-006	0.00000E+000	1.27006E-001	0.00000E+000	9	...........	1467.52
	1177	58.9	1.22979E-001	-8.15935E-006	0.00000E+000	1.22995E-001	0.00000E+000	9	...........	1467.52
	1181	59.1	1.18994E-001	-8.44045E-006	0.00000E+000	1.18996E-001	0.00000E+000	9	...........	1467.52
	1185	59.3	1.14985E-001	-8.73161E-006	0.00000E+000	1.14998E-001	0.00000E+000	9	...........	1467.52
	1189	59.5	1.10982E-001	-9.02168E-006	0.00000E+000	1.10999E-001	0.00000E+000	9	...........	1467.52
	1193	59.7	1.06978E-001	-9.31240E-006	0.00000E+000	1.07001E-001	0.00000E+000	9	...........	1467.52
	1197	59.9	1.03011E-001	-9.60559E-006	0.00000E+000	1.03002E-001	0.00000E+000	9	...........	1467.52
	1200	60.05	1.00002E-001	-9.81836E-006	0.00000E+000	1.00003E-001	0.00000E+000	9	...........	1467.52
CURVE4	TABLE
	Pt	T	Vf	Im	Vu	Sig	Ach	IERange	Over	Temp
	#	s	V vs. Ref.	A	V	V	V	#	bits	deg C
	1201	60.1	9.99896E-002	-9.44241E-006	0.00000E+000	1.00003E-001	0.00000E+000	9	...........	1467.52