Folder: gamry_post_processing_/input (part 3)

File: CHRONOPOINTS_#1_#5.DTA
EXPLAIN
TAG	CHRONOA
TITLE	LABEL	CHRONOP	Test Identifier
DATE	LABEL	17.7.2024	Date
TIME	LABEL	10:56:25	Time
NOTES	NOTES	1	Notes...

PSTAT	PSTAT	IFC1010-34090	Potentiostat
VPRESTEP	POTEN	-2.00000E-001	F	A Potential (V)
TPRESTEP	QUANT	1.00000E+000	Pre-step Delay Time (s)
VSTEP1	POTEN	-2.00000E-001	F	A Potential (V)
TSTEP1	QUANT	5.00000E+000	Step 1 Time (s)
VSTEP2	POTEN	-2.00000E-001	F	A Potential (V)
TSTEP2	QUANT	1.00000E+002	Step 2 Time (s)
SAMPLETIME	QUANT	1.00000E+000	Sample Period (s)
DECIMATE	TOGGLE	F	Decimate
ILIMIT	QUANT	6.00000E+001	Limit I (mA/cm^2)
IMODE	SELECTOR	0	I/E Range Mode
IRANGE	QUANT	3.00000E-001	Max Current (mA)
EQDELAY	QUANT	0.00000E+000	Equil. Time (s)
SAMPLINGMODE	SELECTOR	1	Sampling Mode
AREA	QUANT	1.00000E+000	Sample Area (cm^2)
IRCOMP	SELECTOR	0	IRComp
PFCOR	QUANT	5.00000E+001	PF Corr. (ohm)
ELECTRODETYPE	SELECTOR	0	Electrode Type
STRIPPING	TOGGLE	F	Used for Stripping
SEQUENCER	TOGGLE	TRUE	Run as Sequence
PSTATMODEL	IQUANT	64	Pstat Model
PSTATSECTION	LABEL	IFC1010-34090	Pstat Section
PSTATSERIALNO	LABEL	34090	Pstat Serial Number
CTRLMODE	IQUANT	1	Control Mode
ELECTROMETER	IQUANT	0	RE=0 or CS=1
IESTAB	IQUANT	0	I/E Stability
CASPEED	IQUANT	4	Control Amp Speed
CONVENTION	IQUANT	1	Current Convention
ICHRANGE	IQUANT	2	Ich Range
ICHRANGEMODE	TOGGLE	T	Ich Auto Range
ICHOFFSETENABLE	TOGGLE	F	Ich Offset Enable
ICHOFFSET	QUANT	0	Ich Offset (V)
ICHFILTER	IQUANT	4	Ich Filter
VCHRANGE	IQUANT	1	Vch Range
VCHRANGEMODE	TOGGLE	F	Vch Auto Range
VCHOFFSETENABLE	TOGGLE	F	Vch Offset Enable
VCHOFFSET	QUANT	0	Vch Offset (V)
VCHFILTER	IQUANT	4	Vch Filter
IERANGELOWERLIMIT	IQUANT	4	I/E Range Lower Limit
IERANGEMODE	TOGGLE	T	I/E AutoRange
IERANGE	IQUANT	9	I/E Range
ACHSELECT	IQUANT	0	Ach Select
ACHRANGE	IQUANT	2	Ach Range
ACHOFFSETENABLE	TOGGLE	F	Ach Offset Enable
ACHOFFSET	QUANT	0	Ach Offset (V)
ACHFILTER	IQUANT	1	Ach Filter
SENSECABLEID	IQUANT	13	Sense Cable ID
PWRCABLEID	IQUANT	13	Power Cable ID
DCCALDATE	LABEL	1/30/2024	DC Calibration Date
ACCALDATE	LABEL	1/8/2024	AC Calibration Date
FRAMEWORKVERSION	LABEL	7.10.3	Framework Version
INSTRUMENTVERSION	LABEL	4.91	Instrument Version
COMMVERSION	LABEL	3.10	Communications Version
CPUPLDVERSION	LABEL	2.22	CPU PLD Version
CTRLPLDVERSION	LABEL	0.00	CTRL PLD Version
PSTATPLDVERSION	LABEL	0.00	PSTAT PLD Version
CURVE	TABLE	106
	Pt	T	Vf	Im	Vu	Sig	Ach	IERange	Over	Temp
	#	s	V vs. Ref.	A	V	V	V	#	bits	deg C
	0	0	-1.99770E-001	-2.76397E-005	0.00000E+000	-1.99987E-001	0.00000E+000	9	...........	1467.43
	2	2	-1.99772E-001	-2.38580E-005	0.00000E+000	-1.99987E-001	0.00000E+000	8	...........	1467.43
	4	4	-1.99774E-001	-2.25845E-005	0.00000E+000	-1.99987E-001	0.00000E+000	8	...........	1467.43
	6	6	-1.99774E-001	-2.20562E-005	0.00000E+000	-1.99987E-001	0.00000E+000	8	...........	1467.43
	8	8	-1.99772E-001	-2.18383E-005	0.00000E+000	-1.99987E-001	0.00000E+000	8	...........	1467.43
	10	10	-1.99775E-001	-2.17179E-005	0.00000E+000	-1.99987E-001	0.00000E+000	8	...........	1467.43
	12	12	-1.99774E-001	-2.15887E-005	0.00000E+000	-1.99987E-001	0.00000E+000	8	...........	1467.43
	14	14	-1.99773E-001	-2.14317E-005	0.00000E+000	-1.99987E-001	0.00000E+000	8	...........	1467.43
	16	16	-1.99774E-001	-2.12450E-005	0.00000E+000	-1.99987E-001	0.00000E+000	8	...........	1467.43
	18	18	-1.99774E-001	-2.10272E-005	0.00000E+000	-1.99987E-001	0.00000E+000	8	...........	1467.43
	20	20	-1.99773E-001	-2.07774E-005	0.00000E+000	-1.99987E-001	0.00000E+000	8	...........	1467.43
	22	22	-1.99773E-001	-2.04981E-005	0.00000E+000	-1.99987E-001	0.00000E+000	8	...........	1467.43
	24	24	-1.99773E-001	-2.01861E-005	0.00000E+000	-1.99987E-001	0.00000E+000	8	...........	1467.43
	26	26	-1.99774E-001	-1.98498E-005	0.00000E+000	-1.99987E-001	0.00000E+000	8	...........	1467.43
	28	28	-1.99774E-001	-1.95073E-005	0.00000E+000	-1.99987E-001	0.00000E+000	8	...........	1467.43
	30	30	-1.99772E-001	-1.91546E-005	0.00000E+000	-1.99987E-001	0.00000E+000	8	...........	1467.43
	32	32	-1.99774E-001	-1.87976E-005	0.00000E+000	-1.99987E-001	0.00000E+000	8	...........	1467.43
	34	34	-1.99774E-001	-1.84388E-005	0.00000E+000	-1.99987E-001	0.00000E+000	8	...........	1467.43
	36	36	-1.99773E-001	-1.80862E-005	0.00000E+000	-1.99987E-001	0.00000E+000	8	...........	1467.43
	38	38	-1.99772E-001	-1.77435E-005	0.00000E+000	-1.99987E-001	0.00000E+000	8	...........	1467.43
	40	40	-1.99774E-001	-1.74276E-005	0.00000E+000	-1.99987E-001	0.00000E+000	8	...........	1467.43
	42	42	-1.99774E-001	-1.71282E-005	0.00000E+000	-1.99987E-001	0.00000E+000	8	...........	1467.43
	44	44	-1.99774E-001	-1.68588E-005	0.00000E+000	-1.99987E-001	0.00000E+000	8	...........	1467.43
	46	46	-1.99774E-001	-1.66170E-005	0.00000E+000	-1.99987E-001	0.00000E+000	8	...........	1467.43
	48	48	-1.99773E-001	-1.63926E-005	0.00000E+000	-1.99987E-001	0.00000E+000	8	...........	1467.43
	50	50	-1.99773E-001	-1.62101E-005	0.00000E+000	-1.99987E-001	0.00000E+000	8	...........	1467.43
	52	52	-1.99774E-001	-1.60519E-005	0.00000E+000	-1.99987E-001	0.00000E+000	8	...........	1467.43
	54	54	-1.99774E-001	-1.59098E-005	0.00000E+000	-1.99987E-001	0.00000E+000	8	...........	1467.43
	56	56	-1.99775E-001	-1.57805E-005	0.00000E+000	-1.99987E-001	0.00000E+000	8	...........	1467.43
	58	58	-1.99774E-001	-1.56722E-005	0.00000E+000	-1.99987E-001	0.00000E+000	8	...........	1467.43
	60	60	-1.99774E-001	-1.55762E-005	0.00000E+000	-1.99987E-001	0.00000E+000	8	...........	1467.43
	62	62	-1.99776E-001	-1.54895E-005	0.00000E+000	-1.99987E-001	0.00000E+000	8	...........	1467.43
	64	64	-1.99775E-001	-1.54186E-005	0.00000E+000	-1.99987E-001	0.00000E+000	8	...........	1467.43
	66	66	-1.99774E-001	-1.53532E-005	0.00000E+000	-1.99987E-001	0.00000E+000	8	...........	1467.43
	68	68	-1.99774E-001	-1.52961E-005	0.00000E+000	-1.99987E-001	0.00000E+000	8	...........	1467.43
	70	70	-1.99776E-001	-1.52362E-005	0.00000E+000	-1.99987E-001	0.00000E+000	8	...........	1467.43
	72	72	-1.99776E-001	-1.51862E-005	0.00000E+000	-1.99987E-001	0.00000E+000	8	...........	1467.43
	74	74	-1.99774E-001	-1.51449E-005	0.00000E+000	-1.99987E-001	0.00000E+000	8	...........	1467.43
	76	76	-1.99774E-001	-1.51012E-005	0.00000E+000	-1.99987E-001	0.00000E+000	8	...........	1467.43
	78	78	-1.99775E-001	-1.50591E-005	0.00000E+000	-1.99987E-001	0.00000E+000	8	...........	1467.43
	80	80	-1.99775E-001	-1.50203E-005	0.00000E+000	-1.99987E-001	0.00000E+000	8	...........	1467.43
	82	82	-1.99774E-001	-1.49852E-005	0.00000E+000	-1.99987E-001	0.00000E+000	8	...........	1467.43
	84	84	-1.99775E-001	-1.49584E-005	0.00000E+000	-1.99987E-001	0.00000E+000	8	...........	1467.43
	86	86	-1.99774E-001	-1.49179E-005	0.00000E+000	-1.99987E-001	0.00000E+000	8	...........	1467.43
	88	88	-1.99775E-001	-1.48877E-005	0.00000E+000	-1.99987E-001	0.00000E+000	8	...........	1467.43
	90	90	-1.99774E-001	-1.48618E-005	0.00000E+000	-1.99987E-001	0.00000E+000	8	...........	1467.43
	92	92	-1.99774E-001	-1.48372E-005	0.00000E+000	-1.99987E-001	0.00000E+000	8	...........	1467.43
	94	94	-1.99774E-001	-1.48101E-005	0.00000E+000	-1.99987E-001	0.00000E+000	8	...........	1467.43
	96	96	-1.99775E-001	-1.47822E-005	0.00000E+000	-1.99987E-001	0.00000E+000	8	...........	1467.43
	98	98	-1.99774E-001	-1.47518E-005	0.00000E+000	-1.99987E-001	0.00000E+000	8	...........	1467.43
	100	100	-1.99773E-001	-1.47272E-005	0.00000E+000	-1.99987E-001	0.00000E+000	8	...........	1467.43
	102	102	-1.99774E-001	-1.47041E-005	0.00000E+000	-1.99987E-001	0.00000E+000	8	...........	1467.43
	104	104	-1.99774E-001	-1.46872E-005	0.00000E+000	-1.99987E-001	0.00000E+000	8	...........	1467.43
	105	105	-1.99775E-001	-1.46713E-005	0.00000E+000	-1.99987E-001	0.00000E+000	8	...........	1467.43

File: CHRONOPOINTS_#1_#6.DTA
EXPLAIN
TAG	CHRONOA
TITLE	LABEL	CHRONOP	Test Identifier
DATE	LABEL	17.7.2024	Date
TIME	LABEL	10:58:11	Time
NOTES	NOTES	1	Notes...

PSTAT	PSTAT	IFC1010-34090	Potentiostat
VPRESTEP	POTEN	-2.50000E-001	F	A Potential (V)
TPRESTEP	QUANT	1.00000E+000	Pre-step Delay Time (s)
VSTEP1	POTEN	-2.50000E-001	F	A Potential (V)
TSTEP1	QUANT	5.00000E+000	Step 1 Time (s)
VSTEP2	POTEN	-2.50000E-001	F	A Potential (V)
TSTEP2	QUANT	1.00000E+002	Step 2 Time (s)
SAMPLETIME	QUANT	1.00000E+000	Sample Period (s)
DECIMATE	TOGGLE	F	Decimate
ILIMIT	QUANT	6.00000E+001	Limit I (mA/cm^2)
IMODE	SELECTOR	0	I/E Range Mode
IRANGE	QUANT	3.00000E-001	Max Current (mA)
EQDELAY	QUANT	0.00000E+000	Equil. Time (s)
SAMPLINGMODE	SELECTOR	1	Sampling Mode
AREA	QUANT	1.00000E+000	Sample Area (cm^2)
IRCOMP	SELECTOR	0	IRComp
PFCOR	QUANT	5.00000E+001	PF Corr. (ohm)
ELECTRODETYPE	SELECTOR	0	Electrode Type
STRIPPING	TOGGLE	F	Used for Stripping
SEQUENCER	TOGGLE	TRUE	Run as Sequence
PSTATMODEL	IQUANT	64	Pstat Model
PSTATSECTION	LABEL	IFC1010-34090	Pstat Section
PSTATSERIALNO	LABEL	34090	Pstat Serial Number
CTRLMODE	IQUANT	1	Control Mode
ELECTROMETER	IQUANT	0	RE=0 or CS=1
IESTAB	IQUANT	0	I/E Stability
CASPEED	IQUANT	4	Control Amp Speed
CONVENTION	IQUANT	1	Current Convention
ICHRANGE	IQUANT	2	Ich Range
ICHRANGEMODE	TOGGLE	T	Ich Auto Range
ICHOFFSETENABLE	TOGGLE	F	Ich Offset Enable
ICHOFFSET	QUANT	0	Ich Offset (V)
ICHFILTER	IQUANT	4	Ich Filter
VCHRANGE	IQUANT	1	Vch Range
VCHRANGEMODE	TOGGLE	F	Vch Auto Range
VCHOFFSETENABLE	TOGGLE	F	Vch Offset Enable
VCHOFFSET	QUANT	0	Vch Offset (V)
VCHFILTER	IQUANT	4	Vch Filter
IERANGELOWERLIMIT	IQUANT	4	I/E Range Lower Limit
IERANGEMODE	TOGGLE	T	I/E AutoRange
IERANGE	IQUANT	9	I/E Range
ACHSELECT	IQUANT	0	Ach Select
ACHRANGE	IQUANT	2	Ach Range
ACHOFFSETENABLE	TOGGLE	F	Ach Offset Enable
ACHOFFSET	QUANT	0	Ach Offset (V)
ACHFILTER	IQUANT	1	Ach Filter
SENSECABLEID	IQUANT	13	Sense Cable ID
PWRCABLEID	IQUANT	13	Power Cable ID
DCCALDATE	LABEL	1/30/2024	DC Calibration Date
ACCALDATE	LABEL	1/8/2024	AC Calibration Date
FRAMEWORKVERSION	LABEL	7.10.3	Framework Version
INSTRUMENTVERSION	LABEL	4.91	Instrument Version
COMMVERSION	LABEL	3.10	Communications Version
CPUPLDVERSION	LABEL	2.22	CPU PLD Version
CTRLPLDVERSION	LABEL	0.00	CTRL PLD Version
PSTATPLDVERSION	LABEL	0.00	PSTAT PLD Version
CURVE	TABLE	106
	Pt	T	Vf	Im	Vu	Sig	Ach	IERange	Over	Temp
	#	s	V vs. Ref.	A	V	V	V	#	bits	deg C
	0	0	-2.49827E-001	-2.69599E-004	0.00000E+000	-2.49983E-001	0.00000E+000	9	...........	1467.43
	2	2	-2.49834E-001	-2.31393E-004	0.00000E+000	-2.49983E-001	0.00000E+000	9	...........	1467.43
	4	4	-2.49833E-001	-2.21781E-004	0.00000E+000	-2.49983E-001	0.00000E+000	9	...........	1467.43
	6	6	-2.49834E-001	-2.16577E-004	0.00000E+000	-2.49983E-001	0.00000E+000	9	...........	1467.43
	8	8	-2.49835E-001	-2.13203E-004	0.00000E+000	-2.49983E-001	0.00000E+000	9	...........	1467.43
	10	10	-2.49833E-001	-2.10761E-004	0.00000E+000	-2.49983E-001	0.00000E+000	9	...........	1467.43
	12	12	-2.49833E-001	-2.08944E-004	0.00000E+000	-2.49983E-001	0.00000E+000	9	...........	1467.43
	14	14	-2.49833E-001	-2.07516E-004	0.00000E+000	-2.49983E-001	0.00000E+000	9	...........	1467.43
	16	16	-2.49833E-001	-2.06328E-004	0.00000E+000	-2.49983E-001	0.00000E+000	9	...........	1467.43
	18	18	-2.49836E-001	-2.05384E-004	0.00000E+000	-2.49983E-001	0.00000E+000	9	...........	1467.43
	20	20	-2.49833E-001	-2.04561E-004	0.00000E+000	-2.49983E-001	0.00000E+000	9	...........	1467.43
	22	22	-2.49834E-001	-2.03835E-004	0.00000E+000	-2.49983E-001	0.00000E+000	9	...........	1467.43
	24	24	-2.49835E-001	-2.03209E-004	0.00000E+000	-2.49983E-001	0.00000E+000	9	...........	1467.43
	26	26	-2.49833E-001	-2.02672E-004	0.00000E+000	-2.49983E-001	0.00000E+000	9	...........	1467.43
	28	28	-2.49833E-001	-2.02197E-004	0.00000E+000	-2.49983E-001	0.00000E+000	9	...........	1467.43
	30	30	-2.49832E-001	-2.01737E-004	0.00000E+000	-2.49983E-001	0.00000E+000	9	...........	1467.43
	32	32	-2.49835E-001	-2.01344E-004	0.00000E+000	-2.49983E-001	0.00000E+000	9	...........	1467.43
	34	34	-2.49833E-001	-2.00996E-004	0.00000E+000	-2.49983E-001	0.00000E+000	9	...........	1467.43
	36	36	-2.49834E-001	-2.00607E-004	0.00000E+000	-2.49983E-001	0.00000E+000	9	...........	1467.43
	38	38	-2.49834E-001	-2.00336E-004	0.00000E+000	-2.49983E-001	0.00000E+000	9	...........	1467.43
	40	40	-2.49835E-001	-2.00024E-004	0.00000E+000	-2.49983E-001	0.00000E+000	9	...........	1467.43
	42	42	-2.49833E-001	-1.99756E-004	0.00000E+000	-2.49983E-001	0.00000E+000	9	...........	1467.43
	44	44	-2.49833E-001	-1.99515E-004	0.00000E+000	-2.49983E-001	0.00000E+000	9	...........	1467.43
	46	46	-2.49833E-001	-1.99284E-004	0.00000E+000	-2.49983E-001	0.00000E+000	9	...........	1467.43
	48	48	-2.49834E-001	-1.99039E-004	0.00000E+000	-2.49983E-001	0.00000E+000	9	...........	1467.43
	50	50	-2.49836E-001	-1.98845E-004	0.00000E+000	-2.49983E-001	0.00000E+000	9	...........	1467.43
	52	52	-2.49833E-001	-1.98603E-004	0.00000E+000	-2.49983E-001	0.00000E+000	9	...........	1467.43
	54	54	-2.49834E-001	-1.98406E-004	0.00000E+000	-2.49983E-001	0.00000E+000	9	...........	1467.43
	56	56	-2.49834E-001	-1.98217E-004	0.00000E+000	-2.49983E-001	0.00000E+000	9	...........	1467.43
	58	58	-2.49833E-001	-1.98078E-004	0.00000E+000	-2.49983E-001	0.00000E+000	9	...........	1467.43
	60	60	-2.49832E-001	-1.97877E-004	0.00000E+000	-2.49983E-001	0.00000E+000	9	...........	1467.43
	62	62	-2.49834E-001	-1.97769E-004	0.00000E+000	-2.49983E-001	0.00000E+000	9	...........	1467.43
	64	64	-2.49832E-001	-1.97583E-004	0.00000E+000	-2.49983E-001	0.00000E+000	9	...........	1467.43
	66	66	-2.49835E-001	-1.97498E-004	0.00000E+000	-2.49983E-001	0.00000E+000	9	...........	1467.43
	68	68	-2.49833E-001	-1.97307E-004	0.00000E+000	-2.49983E-001	0.00000E+000	9	...........	1467.43
	70	70	-2.49834E-001	-1.97246E-004	0.00000E+000	-2.49983E-001	0.00000E+000	9	...........	1467.43
	72	72	-2.49833E-001	-1.97101E-004	0.00000E+000	-2.49983E-001	0.00000E+000	9	...........	1467.43
	74	74	-2.49834E-001	-1.96967E-004	0.00000E+000	-2.49983E-001	0.00000E+000	9	...........	1467.43
	76	76	-2.49833E-001	-1.96868E-004	0.00000E+000	-2.49983E-001	0.00000E+000	9	...........	1467.43
	78	78	-2.49835E-001	-1.96751E-004	0.00000E+000	-2.49983E-001	0.00000E+000	9	...........	1467.43
	80	80	-2.49833E-001	-1.96584E-004	0.00000E+000	-2.49983E-001	0.00000E+000	9	...........	1467.43
	82	82	-2.49834E-001	-1.96537E-004	0.00000E+000	-2.49983E-001	0.00000E+000	9	...........	1467.43
	84	84	-2.49833E-001	-1.96415E-004	0.00000E+000	-2.49983E-001	0.00000E+000	9	...........	1467.43
	86	86	-2.49833E-001	-1.96286E-004	0.00000E+000	-2.49983E-001	0.00000E+000	9	...........	1467.43
	88	88	-2.49834E-001	-1.96220E-004	0.00000E+000	-2.49983E-001	0.00000E+000	9	...........	1467.43
	90	90	-2.49833E-001	-1.96123E-004	0.00000E+000	-2.49983E-001	0.00000E+000	9	...........	1467.43
	92	92	-2.49834E-001	-1.96055E-004	0.00000E+000	-2.49983E-001	0.00000E+000	9	...........	1467.43
	94	94	-2.49832E-001	-1.95922E-004	0.00000E+000	-2.49983E-001	0.00000E+000	9	...........	1467.43
	96	96	-2.49832E-001	-1.95855E-004	0.00000E+000	-2.49983E-001	0.00000E+000	9	...........	1467.43
	98	98	-2.49833E-001	-1.95784E-004	0.00000E+000	-2.49983E-001	0.00000E+000	9	...........	1467.43
	100	100	-2.49833E-001	-1.95748E-004	0.00000E+000	-2.49983E-001	0.00000E+000	9	...........	1467.43
	102	102	-2.49832E-001	-1.95597E-004	0.00000E+000	-2.49983E-001	0.00000E+000	9	...........	1467.43
	104	104	-2.49835E-001	-1.95564E-004	0.00000E+000	-2.49983E-001	0.00000E+000	9	...........	1467.43
	105	105	-2.49835E-001	-1.95535E-004	0.00000E+000	-2.49983E-001	0.00000E+000	9	...........	1467.43

File: CHRONOPOINTS_#1_#7.DTA
EXPLAIN
TAG	CHRONOA
TITLE	LABEL	CHRONOP	Test Identifier
DATE	LABEL	17.7.2024	Date
TIME	LABEL	10:59:57	Time
NOTES	NOTES	1	Notes...

PSTAT	PSTAT	IFC1010-34090	Potentiostat
VPRESTEP	POTEN	-3.00000E-001	F	A Potential (V)
TPRESTEP	QUANT	1.00000E+000	Pre-step Delay Time (s)
VSTEP1	POTEN	-3.00000E-001	F	A Potential (V)
TSTEP1	QUANT	5.00000E+000	Step 1 Time (s)
VSTEP2	POTEN	-3.00000E-001	F	A Potential (V)
TSTEP2	QUANT	1.00000E+002	Step 2 Time (s)
SAMPLETIME	QUANT	1.00000E+000	Sample Period (s)
DECIMATE	TOGGLE	F	Decimate
ILIMIT	QUANT	6.00000E+001	Limit I (mA/cm^2)
IMODE	SELECTOR	0	I/E Range Mode
IRANGE	QUANT	3.00000E-001	Max Current (mA)
EQDELAY	QUANT	0.00000E+000	Equil. Time (s)
SAMPLINGMODE	SELECTOR	1	Sampling Mode
AREA	QUANT	1.00000E+000	Sample Area (cm^2)
IRCOMP	SELECTOR	0	IRComp
PFCOR	QUANT	5.00000E+001	PF Corr. (ohm)
ELECTRODETYPE	SELECTOR	0	Electrode Type
STRIPPING	TOGGLE	F	Used for Stripping
SEQUENCER	TOGGLE	TRUE	Run as Sequence
PSTATMODEL	IQUANT	64	Pstat Model
PSTATSECTION	LABEL	IFC1010-34090	Pstat Section
PSTATSERIALNO	LABEL	34090	Pstat Serial Number
CTRLMODE	IQUANT	1	Control Mode
ELECTROMETER	IQUANT	0	RE=0 or CS=1
IESTAB	IQUANT	0	I/E Stability
CASPEED	IQUANT	4	Control Amp Speed
CONVENTION	IQUANT	1	Current Convention
ICHRANGE	IQUANT	2	Ich Range
ICHRANGEMODE	TOGGLE	T	Ich Auto Range
ICHOFFSETENABLE	TOGGLE	F	Ich Offset Enable
ICHOFFSET	QUANT	0	Ich Offset (V)
ICHFILTER	IQUANT	4	Ich Filter
VCHRANGE	IQUANT	2	Vch Range
VCHRANGEMODE	TOGGLE	F	Vch Auto Range
VCHOFFSETENABLE	TOGGLE	F	Vch Offset Enable
VCHOFFSET	QUANT	0	Vch Offset (V)
VCHFILTER	IQUANT	4	Vch Filter
IERANGELOWERLIMIT	IQUANT	4	I/E Range Lower Limit
IERANGEMODE	TOGGLE	T	I/E AutoRange
IERANGE	IQUANT	9	I/E Range
ACHSELECT	IQUANT	0	Ach Select
ACHRANGE	IQUANT	2	Ach Range
ACHOFFSETENABLE	TOGGLE	F	Ach Offset Enable
ACHOFFSET	QUANT	0	Ach Offset (V)
ACHFILTER	IQUANT	1	Ach Filter
SENSECABLEID	IQUANT	13	Sense Cable ID
PWRCABLEID	IQUANT	13	Power Cable ID
DCCALDATE	LABEL	1/30/2024	DC Calibration Date
ACCALDATE	LABEL	1/8/2024	AC Calibration Date
FRAMEWORKVERSION	LABEL	7.10.3	Framework Version
INSTRUMENTVERSION	LABEL	4.91	Instrument Version
COMMVERSION	LABEL	3.10	Communications Version
CPUPLDVERSION	LABEL	2.22	CPU PLD Version
CTRLPLDVERSION	LABEL	0.00	CTRL PLD Version
PSTATPLDVERSION	LABEL	0.00	PSTAT PLD Version
CURVE	TABLE	106
	Pt	T	Vf	Im	Vu	Sig	Ach	IERange	Over	Temp
	#	s	V vs. Ref.	A	V	V	V	#	bits	deg C
	0	0	-2.99789E-001	-1.09191E-003	0.00000E+000	-2.99980E-001	0.00000E+000	9	....ih..i..	1467.43
	2	2	-2.99803E-001	-1.57630E-003	0.00000E+000	-2.99980E-001	0.00000E+000	10	...........	1467.16
	4	4	-2.99806E-001	-1.57153E-003	0.00000E+000	-2.99980E-001	0.00000E+000	10	...........	1467.25
	6	6	-2.99812E-001	-1.56494E-003	0.00000E+000	-2.99980E-001	0.00000E+000	10	...........	1467.25
	8	8	-2.99817E-001	-1.55815E-003	0.00000E+000	-2.99980E-001	0.00000E+000	10	...........	1467.25
	10	10	-2.99818E-001	-1.55157E-003	0.00000E+000	-2.99980E-001	0.00000E+000	10	...........	1467.25
	12	12	-2.99806E-001	-1.54554E-003	0.00000E+000	-2.99980E-001	0.00000E+000	10	...........	1467.25
	14	14	-2.99810E-001	-1.53921E-003	0.00000E+000	-2.99980E-001	0.00000E+000	10	...........	1467.25
	16	16	-2.99809E-001	-1.53357E-003	0.00000E+000	-2.99980E-001	0.00000E+000	10	...........	1467.25
	18	18	-2.99803E-001	-1.52866E-003	0.00000E+000	-2.99980E-001	0.00000E+000	10	...........	1467.25
	20	20	-2.99803E-001	-1.52194E-003	0.00000E+000	-2.99980E-001	0.00000E+000	10	...........	1467.25
	22	22	-2.99803E-001	-1.51650E-003	0.00000E+000	-2.99980E-001	0.00000E+000	10	...........	1467.25
	24	24	-2.99806E-001	-1.51091E-003	0.00000E+000	-2.99980E-001	0.00000E+000	10	...........	1467.25
	26	26	-2.99810E-001	-1.50480E-003	0.00000E+000	-2.99980E-001	0.00000E+000	10	...........	1467.25
	28	28	-2.99803E-001	-1.49901E-003	0.00000E+000	-2.99980E-001	0.00000E+000	10	...........	1467.25
	30	30	-2.99812E-001	-1.49338E-003	0.00000E+000	-2.99980E-001	0.00000E+000	10	...........	1467.25
	32	32	-2.99808E-001	-1.48864E-003	0.00000E+000	-2.99980E-001	0.00000E+000	10	...........	1467.25
	34	34	-2.99805E-001	-1.61724E-003	0.00000E+000	-2.99980E-001	0.00000E+000	10	...........	1467.25
	36	36	-2.99814E-001	-1.60980E-003	0.00000E+000	-2.99980E-001	0.00000E+000	10	...........	1467.25
	38	38	-2.99816E-001	-1.60274E-003	0.00000E+000	-2.99980E-001	0.00000E+000	10	...........	1467.25
	40	40	-2.99804E-001	-1.59524E-003	0.00000E+000	-2.99980E-001	0.00000E+000	10	...........	1467.25
	42	42	-2.99806E-001	-1.58894E-003	0.00000E+000	-2.99980E-001	0.00000E+000	10	...........	1467.25
	44	44	-2.99810E-001	-1.58359E-003	0.00000E+000	-2.99980E-001	0.00000E+000	10	...........	1467.25
	46	46	-2.99812E-001	-1.57765E-003	0.00000E+000	-2.99980E-001	0.00000E+000	10	...........	1467.25
	48	48	-2.99806E-001	-1.57096E-003	0.00000E+000	-2.99980E-001	0.00000E+000	10	...........	1467.16
	50	50	-2.99816E-001	-1.56479E-003	0.00000E+000	-2.99980E-001	0.00000E+000	10	...........	1467.25
	52	52	-2.99803E-001	-1.55847E-003	0.00000E+000	-2.99980E-001	0.00000E+000	10	...........	1467.25
	54	54	-2.99805E-001	-1.55275E-003	0.00000E+000	-2.99980E-001	0.00000E+000	10	...........	1467.25
	56	56	-2.99806E-001	-1.54698E-003	0.00000E+000	-2.99980E-001	0.00000E+000	10	...........	1467.25
	58	58	-2.99804E-001	-1.54222E-003	0.00000E+000	-2.99980E-001	0.00000E+000	10	...........	1467.25
	60	60	-2.99814E-001	-1.53617E-003	0.00000E+000	-2.99980E-001	0.00000E+000	10	...........	1467.25
	62	62	-2.99809E-001	-1.52999E-003	0.00000E+000	-2.99980E-001	0.00000E+000	10	...........	1467.25
	64	64	-2.99808E-001	-1.52432E-003	0.00000E+000	-2.99980E-001	0.00000E+000	10	...........	1467.16
	66	66	-2.99805E-001	-1.51850E-003	0.00000E+000	-2.99980E-001	0.00000E+000	10	...........	1467.25
	68	68	-2.99801E-001	-1.51289E-003	0.00000E+000	-2.99980E-001	0.00000E+000	10	...........	1467.25
	70	70	-2.99798E-001	-1.50791E-003	0.00000E+000	-2.99980E-001	0.00000E+000	10	...........	1467.25
	72	72	-2.99802E-001	-1.50353E-003	0.00000E+000	-2.99980E-001	0.00000E+000	10	...........	1467.25
	74	74	-2.99810E-001	-1.49825E-003	0.00000E+000	-2.99980E-001	0.00000E+000	10	...........	1467.25
	76	76	-2.99802E-001	-1.49335E-003	0.00000E+000	-2.99980E-001	0.00000E+000	10	...........	1467.25
	78	78	-2.99812E-001	-1.48793E-003	0.00000E+000	-2.99980E-001	0.00000E+000	10	...........	1467.25
	80	80	-2.99796E-001	-1.48200E-003	0.00000E+000	-2.99980E-001	0.00000E+000	10	...........	1467.25
	82	82	-2.99801E-001	-1.47561E-003	0.00000E+000	-2.99980E-001	0.00000E+000	10	...........	1467.25
	84	84	-2.99808E-001	-1.60875E-003	0.00000E+000	-2.99980E-001	0.00000E+000	10	...........	1467.25
	86	86	-2.99803E-001	-1.60366E-003	0.00000E+000	-2.99980E-001	0.00000E+000	10	...........	1467.25
	88	88	-2.99809E-001	-1.59694E-003	0.00000E+000	-2.99980E-001	0.00000E+000	10	...........	1467.25
	90	90	-2.99800E-001	-1.59012E-003	0.00000E+000	-2.99980E-001	0.00000E+000	10	...........	1467.25
	92	92	-2.99805E-001	-1.58379E-003	0.00000E+000	-2.99980E-001	0.00000E+000	10	...........	1467.25
	94	94	-2.99803E-001	-1.57734E-003	0.00000E+000	-2.99980E-001	0.00000E+000	10	...........	1467.25
	96	96	-2.99801E-001	-1.57088E-003	0.00000E+000	-2.99980E-001	0.00000E+000	10	...........	1467.25
	98	98	-2.99804E-001	-1.56484E-003	0.00000E+000	-2.99980E-001	0.00000E+000	10	...........	1467.25
	100	100	-2.99799E-001	-1.55950E-003	0.00000E+000	-2.99980E-001	0.00000E+000	10	...........	1467.25
	102	102	-2.99801E-001	-1.55507E-003	0.00000E+000	-2.99980E-001	0.00000E+000	10	...........	1467.16
	104	104	-2.99811E-001	-1.54940E-003	0.00000E+000	-2.99980E-001	0.00000E+000	10	...........	1467.25
	105	105	-2.99810E-001	-1.54616E-003	0.00000E+000	-2.99980E-001	0.00000E+000	10	...........	1467.25