Folder: gamry_post_processing_/input (part 20)

File: CV_ECSA_#2_#4.DTA
EXPLAIN
TAG	CV
TITLE	LABEL	ECSA	Test Identifier
DATE	LABEL	17.7.2024	Date
TIME	LABEL	13:20:15	Time
NOTES	NOTES	1	Notes...

PSTAT	PSTAT	IFC1010-34090	Potentiostat
VINIT	POTEN	1.00000E-001	F	A Potential (V)
VLIMIT1	POTEN	2.00000E-001	F	A Potential (V)
VLIMIT2	POTEN	1.00000E-001	F	A Potential (V)
VFINAL	POTEN	1.00000E-001	F	A Potential (V)
SCANRATE	QUANT	3.99999E+001	A Real Number
STEPSIZE	QUANT	1.00000E+000	Step Size (mV)
CYCLES	IQUANT	3	Cycles (#)
IMODE	SELECTOR	1	I/E Range Mode
IRANGE	QUANT	3.00000E-001	Max Current (mA)
AREA	QUANT	1.00000E+000	Sample Area (cm^2)
EQDELAY	QUANT	0.00000E+000	Equil. Time (s)
IRCOMP	SELECTOR	0	IRComp
PFCOR	QUANT	5.00000E+001	PF Corr. (ohm)
SAMPLINGMODE	SELECTOR	2	Sampling Mode
EOC	QUANT	0.7205974	Open Circuit (V)
ELECTRODETYPE	SELECTOR	0	Electrode Type
STRIPPING	TOGGLE	F	Used for Stripping
SEQUENCER	TOGGLE	TRUE	Run as Sequence
PSTATMODEL	IQUANT	64	Pstat Model
PSTATSECTION	LABEL	IFC1010-34090	Pstat Section
PSTATSERIALNO	LABEL	34090	Pstat Serial Number
CTRLMODE	IQUANT	1	Control Mode
ELECTROMETER	IQUANT	0	RE=0 or CS=1
IESTAB	IQUANT	2	I/E Stability
CASPEED	IQUANT	4	Control Amp Speed
CONVENTION	IQUANT	1	Current Convention
ICHRANGE	IQUANT	2	Ich Range
ICHRANGEMODE	TOGGLE	F	Ich Auto Range
ICHOFFSETENABLE	TOGGLE	F	Ich Offset Enable
ICHOFFSET	QUANT	0	Ich Offset (V)
ICHFILTER	IQUANT	3	Ich Filter
VCHRANGE	IQUANT	1	Vch Range
VCHRANGEMODE	TOGGLE	F	Vch Auto Range
VCHOFFSETENABLE	TOGGLE	F	Vch Offset Enable
VCHOFFSET	QUANT	0	Vch Offset (V)
VCHFILTER	IQUANT	3	Vch Filter
IERANGELOWERLIMIT	IQUANT	4	I/E Range Lower Limit
IERANGEMODE	TOGGLE	F	I/E AutoRange
IERANGE	IQUANT	9	I/E Range
ACHSELECT	IQUANT	0	Ach Select
ACHRANGE	IQUANT	2	Ach Range
ACHOFFSETENABLE	TOGGLE	F	Ach Offset Enable
ACHOFFSET	QUANT	0	Ach Offset (V)
ACHFILTER	IQUANT	1	Ach Filter
SENSECABLEID	IQUANT	13	Sense Cable ID
PWRCABLEID	IQUANT	13	Power Cable ID
DCCALDATE	LABEL	1/30/2024	DC Calibration Date
ACCALDATE	LABEL	1/8/2024	AC Calibration Date
FRAMEWORKVERSION	LABEL	7.10.3	Framework Version
INSTRUMENTVERSION	LABEL	4.91	Instrument Version
COMMVERSION	LABEL	3.10	Communications Version
CPUPLDVERSION	LABEL	2.22	CPU PLD Version
CTRLPLDVERSION	LABEL	0.00	CTRL PLD Version
PSTATPLDVERSION	LABEL	0.00	PSTAT PLD Version
CURVE1	TABLE
	Pt	T	Vf	Im	Vu	Sig	Ach	IERange	Over	Temp
	#	s	V vs. Ref.	A	V	V	V	#	bits	deg C
	0	0.025	1.00295E-001	-2.06559E-005	0.00000E+000	9.99950E-002	0.00000E+000	9	...........	1467.43
	2	0.075	1.02287E-001	-1.85152E-005	0.00000E+000	1.01995E-001	0.00000E+000	9	...........	1467.43
	4	0.125	1.04286E-001	-1.82302E-005	0.00000E+000	1.03995E-001	0.00000E+000	9	...........	1467.43
	6	0.175	1.06288E-001	-1.80690E-005	0.00000E+000	1.05994E-001	0.00000E+000	9	...........	1467.43
	8	0.225	1.08290E-001	-1.78645E-005	0.00000E+000	1.07994E-001	0.00000E+000	9	...........	1467.43
	10	0.275	1.10291E-001	-1.77402E-005	0.00000E+000	1.09994E-001	0.00000E+000	9	...........	1467.43
	12	0.325	1.12288E-001	-1.75582E-005	0.00000E+000	1.11994E-001	0.00000E+000	9	...........	1467.43
	14	0.375	1.14303E-001	-1.74412E-005	0.00000E+000	1.14006E-001	0.00000E+000	9	...........	1467.43
	16	0.425	1.16304E-001	-1.72700E-005	0.00000E+000	1.16006E-001	0.00000E+000	9	...........	1467.43
	18	0.475	1.18304E-001	-1.71719E-005	0.00000E+000	1.18006E-001	0.00000E+000	9	...........	1467.43
	20	0.525	1.20307E-001	-1.70072E-005	0.00000E+000	1.20005E-001	0.00000E+000	9	...........	1467.43
	22	0.575	1.22309E-001	-1.69161E-005	0.00000E+000	1.22005E-001	0.00000E+000	9	...........	1467.43
	24	0.625	1.24309E-001	-1.67552E-005	0.00000E+000	1.24005E-001	0.00000E+000	9	...........	1467.43
	26	0.675	1.26309E-001	-1.66644E-005	0.00000E+000	1.26005E-001	0.00000E+000	9	...........	1467.43
	28	0.725	1.28310E-001	-1.65107E-005	0.00000E+000	1.28005E-001	0.00000E+000	9	...........	1467.43
	30	0.775	1.30308E-001	-1.64301E-005	0.00000E+000	1.30004E-001	0.00000E+000	9	...........	1467.43
	32	0.825	1.32309E-001	-1.62767E-005	0.00000E+000	1.32004E-001	0.00000E+000	9	...........	1467.43
	34	0.875	1.34310E-001	-1.62043E-005	0.00000E+000	1.34004E-001	0.00000E+000	9	...........	1467.43
	36	0.925	1.36310E-001	-1.60576E-005	0.00000E+000	1.36004E-001	0.00000E+000	9	...........	1467.47
	38	0.975	1.38312E-001	-1.59807E-005	0.00000E+000	1.38004E-001	0.00000E+000	9	...........	1467.61
	40	1.025	1.40312E-001	-1.58402E-005	0.00000E+000	1.40003E-001	0.00000E+000	9	...........	1467.61
	42	1.075	1.42312E-001	-1.57671E-005	0.00000E+000	1.42003E-001	0.00000E+000	9	...........	1467.61
	44	1.125	1.44310E-001	-1.56266E-005	0.00000E+000	1.44003E-001	0.00000E+000	9	...........	1467.61
	46	1.175	1.46313E-001	-1.55579E-005	0.00000E+000	1.46003E-001	0.00000E+000	9	...........	1467.61
	48	1.225	1.48313E-001	-1.54205E-005	0.00000E+000	1.48003E-001	0.00000E+000	9	...........	1467.61
	50	1.275	1.50311E-001	-1.53590E-005	0.00000E+000	1.50002E-001	0.00000E+000	9	...........	1467.61
	52	1.325	1.52312E-001	-1.52133E-005	0.00000E+000	1.52002E-001	0.00000E+000	9	...........	1467.61
	54	1.375	1.54315E-001	-1.51529E-005	0.00000E+000	1.54002E-001	0.00000E+000	9	...........	1467.61
	56	1.425	1.56314E-001	-1.50150E-005	0.00000E+000	1.56002E-001	0.00000E+000	9	...........	1467.61
	58	1.475	1.58314E-001	-1.49503E-005	0.00000E+000	1.58002E-001	0.00000E+000	9	...........	1467.61
	60	1.525	1.60317E-001	-1.48181E-005	0.00000E+000	1.60001E-001	0.00000E+000	9	...........	1467.61
	62	1.575	1.62315E-001	-1.47623E-005	0.00000E+000	1.62001E-001	0.00000E+000	9	...........	1467.61
	64	1.625	1.64316E-001	-1.46230E-005	0.00000E+000	1.64001E-001	0.00000E+000	9	...........	1467.61
	66	1.675	1.66318E-001	-1.45723E-005	0.00000E+000	1.66001E-001	0.00000E+000	9	...........	1467.61
	68	1.725	1.68317E-001	-1.44309E-005	0.00000E+000	1.68001E-001	0.00000E+000	9	...........	1467.61
	70	1.775	1.70321E-001	-1.43747E-005	0.00000E+000	1.70000E-001	0.00000E+000	9	...........	1467.61
	72	1.825	1.72322E-001	-1.42392E-005	0.00000E+000	1.72000E-001	0.00000E+000	9	...........	1467.61
	74	1.875	1.74323E-001	-1.41964E-005	0.00000E+000	1.74000E-001	0.00000E+000	9	...........	1467.61
	76	1.925	1.76322E-001	-1.40541E-005	0.00000E+000	1.76000E-001	0.00000E+000	9	...........	1467.61
	78	1.975	1.78325E-001	-1.39995E-005	0.00000E+000	1.78000E-001	0.00000E+000	9	...........	1467.61
	80	2.025	1.80324E-001	-1.38608E-005	0.00000E+000	1.79999E-001	0.00000E+000	9	...........	1467.61
	82	2.075	1.82324E-001	-1.38112E-005	0.00000E+000	1.81999E-001	0.00000E+000	9	...........	1467.61
	84	2.125	1.84325E-001	-1.36715E-005	0.00000E+000	1.83999E-001	0.00000E+000	9	...........	1467.61
	86	2.175	1.86326E-001	-1.36117E-005	0.00000E+000	1.85999E-001	0.00000E+000	9	...........	1467.61
	88	2.225	1.88326E-001	-1.34748E-005	0.00000E+000	1.87999E-001	0.00000E+000	9	...........	1467.61
	90	2.275	1.90326E-001	-1.34178E-005	0.00000E+000	1.89998E-001	0.00000E+000	9	...........	1467.61
	92	2.325	1.92329E-001	-1.32730E-005	0.00000E+000	1.91998E-001	0.00000E+000	9	...........	1467.61
	94	2.375	1.94326E-001	-1.32161E-005	0.00000E+000	1.93998E-001	0.00000E+000	9	...........	1467.61
	96	2.425	1.96327E-001	-1.30615E-005	0.00000E+000	1.95998E-001	0.00000E+000	9	...........	1467.61
	98	2.475	1.98328E-001	-1.30008E-005	0.00000E+000	1.97998E-001	0.00000E+000	9	...........	1467.61
	100	2.525	2.00331E-001	-1.28575E-005	0.00000E+000	1.99997E-001	0.00000E+000	9	...........	1467.61
[...]
	533	13.35	1.67336E-001	-1.91605E-005	0.00000E+000	1.67001E-001	0.00000E+000	9	...........	1467.88
	535	13.4	1.65337E-001	-1.92300E-005	0.00000E+000	1.65001E-001	0.00000E+000	9	...........	1467.88
	537	13.45	1.63335E-001	-1.93597E-005	0.00000E+000	1.63001E-001	0.00000E+000	9	...........	1467.88
	539	13.5	1.61335E-001	-1.94125E-005	0.00000E+000	1.61001E-001	0.00000E+000	9	...........	1467.88
	541	13.55	1.59335E-001	-1.95470E-005	0.00000E+000	1.59001E-001	0.00000E+000	9	...........	1467.88
	543	13.6	1.57331E-001	-1.96075E-005	0.00000E+000	1.57002E-001	0.00000E+000	9	...........	1467.88
	545	13.65	1.55333E-001	-1.97284E-005	0.00000E+000	1.55002E-001	0.00000E+000	9	...........	1467.88
	547	13.7	1.53331E-001	-1.97962E-005	0.00000E+000	1.53002E-001	0.00000E+000	9	...........	1467.88
	549	13.75	1.51333E-001	-1.99183E-005	0.00000E+000	1.51002E-001	0.00000E+000	9	...........	1467.88
	551	13.8	1.49334E-001	-1.99664E-005	0.00000E+000	1.49003E-001	0.00000E+000	9	...........	1467.88
	553	13.85	1.47334E-001	-2.00981E-005	0.00000E+000	1.47003E-001	0.00000E+000	9	...........	1467.88
	555	13.9	1.45333E-001	-2.01614E-005	0.00000E+000	1.45003E-001	0.00000E+000	9	...........	1467.88
	557	13.95	1.43332E-001	-2.02822E-005	0.00000E+000	1.43003E-001	0.00000E+000	9	...........	1467.43
	559	14	1.41334E-001	-2.03446E-005	0.00000E+000	1.41003E-001	0.00000E+000	9	...........	1467.43
	561	14.05	1.39331E-001	-2.04660E-005	0.00000E+000	1.39004E-001	0.00000E+000	9	...........	1467.43
	563	14.1	1.37329E-001	-2.05312E-005	0.00000E+000	1.37004E-001	0.00000E+000	9	...........	1467.43
	565	14.15	1.35329E-001	-2.06471E-005	0.00000E+000	1.35004E-001	0.00000E+000	9	...........	1467.43
	567	14.2	1.33329E-001	-2.07158E-005	0.00000E+000	1.33004E-001	0.00000E+000	9	...........	1467.43
	569	14.25	1.31327E-001	-2.08404E-005	0.00000E+000	1.31004E-001	0.00000E+000	9	...........	1467.43
	571	14.3	1.29329E-001	-2.08949E-005	0.00000E+000	1.29005E-001	0.00000E+000	9	...........	1467.43
	573	14.35	1.27327E-001	-2.10224E-005	0.00000E+000	1.27005E-001	0.00000E+000	9	...........	1467.43
	575	14.4	1.25325E-001	-2.10910E-005	0.00000E+000	1.25005E-001	0.00000E+000	9	...........	1467.43
	577	14.45	1.23326E-001	-2.12143E-005	0.00000E+000	1.23005E-001	0.00000E+000	9	...........	1467.43
	579	14.5	1.21325E-001	-2.12900E-005	0.00000E+000	1.21005E-001	0.00000E+000	9	...........	1467.43
	581	14.55	1.19324E-001	-2.14140E-005	0.00000E+000	1.19006E-001	0.00000E+000	9	...........	1467.43
	583	14.6	1.17320E-001	-2.14887E-005	0.00000E+000	1.17006E-001	0.00000E+000	9	...........	1467.43
	585	14.65	1.15323E-001	-2.16043E-005	0.00000E+000	1.15006E-001	0.00000E+000	9	...........	1467.43
	587	14.7	1.13319E-001	-2.16824E-005	0.00000E+000	1.13006E-001	0.00000E+000	9	...........	1467.43
	589	14.75	1.11303E-001	-2.18020E-005	0.00000E+000	1.10994E-001	0.00000E+000	9	...........	1467.43
	591	14.8	1.09306E-001	-2.18898E-005	0.00000E+000	1.08994E-001	0.00000E+000	9	...........	1467.43
	593	14.85	1.07305E-001	-2.20128E-005	0.00000E+000	1.06994E-001	0.00000E+000	9	...........	1467.43
	595	14.9	1.05304E-001	-2.21018E-005	0.00000E+000	1.04994E-001	0.00000E+000	9	...........	1467.43
	597	14.95	1.03305E-001	-2.22211E-005	0.00000E+000	1.02995E-001	0.00000E+000	9	...........	1467.88
	599	15	1.01305E-001	-2.23131E-005	0.00000E+000	1.00995E-001	0.00000E+000	9	...........	1467.88
	600	15.025	1.00303E-001	-2.24053E-005	0.00000E+000	9.99950E-002	0.00000E+000	9	...........	1467.88
CURVE4	TABLE
	Pt	T	Vf	Im	Vu	Sig	Ach	IERange	Over	Temp
	#	s	V vs. Ref.	A	V	V	V	#	bits	deg C
	601	15.05	1.00294E-001	-2.06620E-005	0.00000E+000	9.99950E-002	0.00000E+000	9	...........	1467.88

File: CV_ECSA_#2_#5.DTA
EXPLAIN
TAG	CV
TITLE	LABEL	ECSA	Test Identifier
DATE	LABEL	17.7.2024	Date
TIME	LABEL	13:20:30	Time
NOTES	NOTES	1	Notes...

PSTAT	PSTAT	IFC1010-34090	Potentiostat
VINIT	POTEN	1.00000E-001	F	A Potential (V)
VLIMIT1	POTEN	2.00000E-001	F	A Potential (V)
VLIMIT2	POTEN	1.00000E-001	F	A Potential (V)
VFINAL	POTEN	1.00000E-001	F	A Potential (V)
SCANRATE	QUANT	4.99999E+001	A Real Number
STEPSIZE	QUANT	1.00000E+000	Step Size (mV)
CYCLES	IQUANT	3	Cycles (#)
IMODE	SELECTOR	1	I/E Range Mode
IRANGE	QUANT	3.00000E-001	Max Current (mA)
AREA	QUANT	1.00000E+000	Sample Area (cm^2)
EQDELAY	QUANT	0.00000E+000	Equil. Time (s)
IRCOMP	SELECTOR	0	IRComp
PFCOR	QUANT	5.00000E+001	PF Corr. (ohm)
SAMPLINGMODE	SELECTOR	2	Sampling Mode
EOC	QUANT	0.7205974	Open Circuit (V)
ELECTRODETYPE	SELECTOR	0	Electrode Type
STRIPPING	TOGGLE	F	Used for Stripping
SEQUENCER	TOGGLE	TRUE	Run as Sequence
PSTATMODEL	IQUANT	64	Pstat Model
PSTATSECTION	LABEL	IFC1010-34090	Pstat Section
PSTATSERIALNO	LABEL	34090	Pstat Serial Number
CTRLMODE	IQUANT	1	Control Mode
ELECTROMETER	IQUANT	0	RE=0 or CS=1
IESTAB	IQUANT	2	I/E Stability
CASPEED	IQUANT	4	Control Amp Speed
CONVENTION	IQUANT	1	Current Convention
ICHRANGE	IQUANT	2	Ich Range
ICHRANGEMODE	TOGGLE	F	Ich Auto Range
ICHOFFSETENABLE	TOGGLE	F	Ich Offset Enable
ICHOFFSET	QUANT	0	Ich Offset (V)
ICHFILTER	IQUANT	3	Ich Filter
VCHRANGE	IQUANT	1	Vch Range
VCHRANGEMODE	TOGGLE	F	Vch Auto Range
VCHOFFSETENABLE	TOGGLE	F	Vch Offset Enable
VCHOFFSET	QUANT	0	Vch Offset (V)
VCHFILTER	IQUANT	3	Vch Filter
IERANGELOWERLIMIT	IQUANT	4	I/E Range Lower Limit
IERANGEMODE	TOGGLE	F	I/E AutoRange
IERANGE	IQUANT	9	I/E Range
ACHSELECT	IQUANT	0	Ach Select
ACHRANGE	IQUANT	2	Ach Range
ACHOFFSETENABLE	TOGGLE	F	Ach Offset Enable
ACHOFFSET	QUANT	0	Ach Offset (V)
ACHFILTER	IQUANT	1	Ach Filter
SENSECABLEID	IQUANT	13	Sense Cable ID
PWRCABLEID	IQUANT	13	Power Cable ID
DCCALDATE	LABEL	1/30/2024	DC Calibration Date
ACCALDATE	LABEL	1/8/2024	AC Calibration Date
FRAMEWORKVERSION	LABEL	7.10.3	Framework Version
INSTRUMENTVERSION	LABEL	4.91	Instrument Version
COMMVERSION	LABEL	3.10	Communications Version
CPUPLDVERSION	LABEL	2.22	CPU PLD Version
CTRLPLDVERSION	LABEL	0.00	CTRL PLD Version
PSTATPLDVERSION	LABEL	0.00	PSTAT PLD Version
CURVE1	TABLE
	Pt	T	Vf	Im	Vu	Sig	Ach	IERange	Over	Temp
	#	s	V vs. Ref.	A	V	V	V	#	bits	deg C
	0	0.02	1.00292E-001	-2.07076E-005	0.00000E+000	9.99950E-002	0.00000E+000	9	...........	1467.88
	2	0.06	1.02282E-001	-1.81408E-005	0.00000E+000	1.01995E-001	0.00000E+000	9	...........	1467.88
	4	0.1	1.04281E-001	-1.78744E-005	0.00000E+000	1.03995E-001	0.00000E+000	9	...........	1467.88
	6	0.14	1.06283E-001	-1.76595E-005	0.00000E+000	1.05994E-001	0.00000E+000	9	...........	1467.88
	8	0.18	1.08285E-001	-1.74844E-005	0.00000E+000	1.07994E-001	0.00000E+000	9	...........	1467.88
	10	0.22	1.10286E-001	-1.73288E-005	0.00000E+000	1.09994E-001	0.00000E+000	9	...........	1467.88
	12	0.26	1.12285E-001	-1.71722E-005	0.00000E+000	1.11994E-001	0.00000E+000	9	...........	1467.88
	14	0.3	1.14299E-001	-1.70257E-005	0.00000E+000	1.14006E-001	0.00000E+000	9	...........	1467.88
	16	0.34	1.16300E-001	-1.68865E-005	0.00000E+000	1.16006E-001	0.00000E+000	9	...........	1467.88
	18	0.38	1.18299E-001	-1.67387E-005	0.00000E+000	1.18006E-001	0.00000E+000	9	...........	1467.88
	20	0.42	1.20303E-001	-1.66090E-005	0.00000E+000	1.20005E-001	0.00000E+000	9	...........	1467.88
	22	0.46	1.22303E-001	-1.64829E-005	0.00000E+000	1.22005E-001	0.00000E+000	9	...........	1467.88
	24	0.5	1.24303E-001	-1.63543E-005	0.00000E+000	1.24005E-001	0.00000E+000	9	...........	1467.88
	26	0.54	1.26303E-001	-1.62286E-005	0.00000E+000	1.26005E-001	0.00000E+000	9	...........	1467.88
	28	0.58	1.28305E-001	-1.61044E-005	0.00000E+000	1.28005E-001	0.00000E+000	9	...........	1467.88
	30	0.62	1.30302E-001	-1.59815E-005	0.00000E+000	1.30004E-001	0.00000E+000	9	...........	1467.88
	32	0.66	1.32305E-001	-1.58681E-005	0.00000E+000	1.32004E-001	0.00000E+000	9	...........	1467.88
	34	0.7	1.34306E-001	-1.57501E-005	0.00000E+000	1.34004E-001	0.00000E+000	9	...........	1467.88
	36	0.74	1.36306E-001	-1.56399E-005	0.00000E+000	1.36004E-001	0.00000E+000	9	...........	1467.88
	38	0.78	1.38308E-001	-1.55160E-005	0.00000E+000	1.38004E-001	0.00000E+000	9	...........	1467.88
	40	0.82	1.40308E-001	-1.54011E-005	0.00000E+000	1.40003E-001	0.00000E+000	9	...........	1467.43
	42	0.86	1.42310E-001	-1.52938E-005	0.00000E+000	1.42003E-001	0.00000E+000	9	...........	1467.43
	44	0.9	1.44307E-001	-1.51800E-005	0.00000E+000	1.44003E-001	0.00000E+000	9	...........	1467.43
	46	0.94	1.46311E-001	-1.50755E-005	0.00000E+000	1.46003E-001	0.00000E+000	9	...........	1467.43
	48	0.98	1.48310E-001	-1.49589E-005	0.00000E+000	1.48003E-001	0.00000E+000	9	...........	1467.43
	50	1.02	1.50306E-001	-1.48638E-005	0.00000E+000	1.50002E-001	0.00000E+000	9	...........	1467.43
	52	1.06	1.52308E-001	-1.47513E-005	0.00000E+000	1.52002E-001	0.00000E+000	9	...........	1467.43
	54	1.1	1.54310E-001	-1.46442E-005	0.00000E+000	1.54002E-001	0.00000E+000	9	...........	1467.43
	56	1.14	1.56310E-001	-1.45455E-005	0.00000E+000	1.56002E-001	0.00000E+000	9	...........	1467.43
	58	1.18	1.58310E-001	-1.44409E-005	0.00000E+000	1.58002E-001	0.00000E+000	9	...........	1467.43
	60	1.22	1.60313E-001	-1.43365E-005	0.00000E+000	1.60001E-001	0.00000E+000	9	...........	1467.43
	62	1.26	1.62312E-001	-1.42288E-005	0.00000E+000	1.62001E-001	0.00000E+000	9	...........	1467.43
	64	1.3	1.64312E-001	-1.41303E-005	0.00000E+000	1.64001E-001	0.00000E+000	9	...........	1467.43
	66	1.34	1.66315E-001	-1.40276E-005	0.00000E+000	1.66001E-001	0.00000E+000	9	...........	1467.43
	68	1.38	1.68315E-001	-1.39248E-005	0.00000E+000	1.68001E-001	0.00000E+000	9	...........	1467.43
	70	1.42	1.70319E-001	-1.38152E-005	0.00000E+000	1.70000E-001	0.00000E+000	9	...........	1467.43
	72	1.46	1.72318E-001	-1.37243E-005	0.00000E+000	1.72000E-001	0.00000E+000	9	...........	1467.43
	74	1.5	1.74318E-001	-1.36201E-005	0.00000E+000	1.74000E-001	0.00000E+000	9	...........	1467.43
	76	1.54	1.76317E-001	-1.35122E-005	0.00000E+000	1.76000E-001	0.00000E+000	9	...........	1467.43
	78	1.58	1.78320E-001	-1.34091E-005	0.00000E+000	1.78000E-001	0.00000E+000	9	...........	1467.43
	80	1.62	1.80320E-001	-1.33093E-005	0.00000E+000	1.79999E-001	0.00000E+000	9	...........	1467.43
	82	1.66	1.82322E-001	-1.32066E-005	0.00000E+000	1.81999E-001	0.00000E+000	9	...........	1467.43
	84	1.7	1.84321E-001	-1.31044E-005	0.00000E+000	1.83999E-001	0.00000E+000	9	...........	1467.43
	86	1.74	1.86322E-001	-1.29993E-005	0.00000E+000	1.85999E-001	0.00000E+000	9	...........	1467.43
	88	1.78	1.88323E-001	-1.28939E-005	0.00000E+000	1.87999E-001	0.00000E+000	9	...........	1467.43
	90	1.82	1.90324E-001	-1.27766E-005	0.00000E+000	1.89998E-001	0.00000E+000	9	...........	1467.61
	92	1.86	1.92325E-001	-1.26647E-005	0.00000E+000	1.91998E-001	0.00000E+000	9	...........	1467.61
	94	1.9	1.94323E-001	-1.25529E-005	0.00000E+000	1.93998E-001	0.00000E+000	9	...........	1467.61
	96	1.94	1.96327E-001	-1.24368E-005	0.00000E+000	1.95998E-001	0.00000E+000	9	...........	1467.61
	98	1.98	1.98326E-001	-1.23179E-005	0.00000E+000	1.97998E-001	0.00000E+000	9	...........	1467.61
	100	2.02	2.00328E-001	-1.22042E-005	0.00000E+000	1.99997E-001	0.00000E+000	9	...........	1467.61
[...]
	533	10.68	1.67336E-001	-1.94193E-005	0.00000E+000	1.67001E-001	0.00000E+000	9	...........	1467.43
	535	10.72	1.65336E-001	-1.95230E-005	0.00000E+000	1.65001E-001	0.00000E+000	9	...........	1467.43
	537	10.76	1.63334E-001	-1.96293E-005	0.00000E+000	1.63001E-001	0.00000E+000	9	...........	1467.43
	539	10.8	1.61335E-001	-1.97264E-005	0.00000E+000	1.61001E-001	0.00000E+000	9	...........	1467.43
	541	10.84	1.59335E-001	-1.98266E-005	0.00000E+000	1.59001E-001	0.00000E+000	9	...........	1467.43
	543	10.88	1.57331E-001	-1.99249E-005	0.00000E+000	1.57002E-001	0.00000E+000	9	...........	1467.43
	545	10.92	1.55331E-001	-2.00186E-005	0.00000E+000	1.55002E-001	0.00000E+000	9	...........	1467.43
	547	10.96	1.53329E-001	-2.01129E-005	0.00000E+000	1.53002E-001	0.00000E+000	9	...........	1467.43
	549	11	1.51332E-001	-2.02115E-005	0.00000E+000	1.51002E-001	0.00000E+000	9	...........	1467.43
	551	11.04	1.49333E-001	-2.02941E-005	0.00000E+000	1.49003E-001	0.00000E+000	9	...........	1467.43
	553	11.08	1.47332E-001	-2.03983E-005	0.00000E+000	1.47003E-001	0.00000E+000	9	...........	1467.43
	555	11.12	1.45329E-001	-2.04942E-005	0.00000E+000	1.45003E-001	0.00000E+000	9	...........	1467.43
	557	11.16	1.43327E-001	-2.05979E-005	0.00000E+000	1.43003E-001	0.00000E+000	9	...........	1467.43
	559	11.2	1.41331E-001	-2.06894E-005	0.00000E+000	1.41003E-001	0.00000E+000	9	...........	1467.43
	561	11.24	1.39328E-001	-2.07860E-005	0.00000E+000	1.39004E-001	0.00000E+000	9	...........	1467.43
	563	11.28	1.37329E-001	-2.08820E-005	0.00000E+000	1.37004E-001	0.00000E+000	9	...........	1467.43
	565	11.32	1.35330E-001	-2.09745E-005	0.00000E+000	1.35004E-001	0.00000E+000	9	...........	1467.43
	567	11.36	1.33329E-001	-2.10755E-005	0.00000E+000	1.33004E-001	0.00000E+000	9	...........	1467.43
	569	11.4	1.31327E-001	-2.11750E-005	0.00000E+000	1.31004E-001	0.00000E+000	9	...........	1467.43
	571	11.44	1.29328E-001	-2.12690E-005	0.00000E+000	1.29005E-001	0.00000E+000	9	...........	1467.43
	573	11.48	1.27326E-001	-2.13721E-005	0.00000E+000	1.27005E-001	0.00000E+000	9	...........	1467.43
	575	11.52	1.25324E-001	-2.14818E-005	0.00000E+000	1.25005E-001	0.00000E+000	9	...........	1467.43
	577	11.56	1.23326E-001	-2.15723E-005	0.00000E+000	1.23005E-001	0.00000E+000	9	...........	1467.43
	579	11.6	1.21324E-001	-2.16747E-005	0.00000E+000	1.21005E-001	0.00000E+000	9	...........	1467.43
	581	11.64	1.19324E-001	-2.17817E-005	0.00000E+000	1.19006E-001	0.00000E+000	9	...........	1467.43
	583	11.68	1.17319E-001	-2.18829E-005	0.00000E+000	1.17006E-001	0.00000E+000	9	...........	1467.43
	585	11.72	1.15321E-001	-2.19903E-005	0.00000E+000	1.15006E-001	0.00000E+000	9	...........	1467.43
	587	11.76	1.13321E-001	-2.21005E-005	0.00000E+000	1.13006E-001	0.00000E+000	9	...........	1467.43
	589	11.8	1.11305E-001	-2.22106E-005	0.00000E+000	1.10994E-001	0.00000E+000	9	...........	1467.43
	591	11.84	1.09309E-001	-2.23184E-005	0.00000E+000	1.08994E-001	0.00000E+000	9	...........	1467.43
	593	11.88	1.07304E-001	-2.24331E-005	0.00000E+000	1.06994E-001	0.00000E+000	9	...........	1467.43
	595	11.92	1.05304E-001	-2.25455E-005	0.00000E+000	1.04994E-001	0.00000E+000	9	...........	1467.43
	597	11.96	1.03303E-001	-2.26670E-005	0.00000E+000	1.02995E-001	0.00000E+000	9	...........	1467.43
	599	12	1.01303E-001	-2.27872E-005	0.00000E+000	1.00995E-001	0.00000E+000	9	...........	1467.43
	600	12.02	1.00303E-001	-2.28349E-005	0.00000E+000	9.99950E-002	0.00000E+000	9	...........	1467.43
CURVE4	TABLE
	Pt	T	Vf	Im	Vu	Sig	Ach	IERange	Over	Temp
	#	s	V vs. Ref.	A	V	V	V	#	bits	deg C
	601	12.04	1.00293E-001	-2.07474E-005	0.00000E+000	9.99950E-002	0.00000E+000	9	...........	1467.43