Folder: gamry_post_processing_/input (part 30)

File: MYCIE_#1.DTA
EXPLAIN
TAG	CV
TITLE	LABEL	MYCIE	Test Identifier
DATE	LABEL	21.8.2024	Date
TIME	LABEL	14:43:33	Time
NOTES	NOTES	1	Notes...

PSTAT	PSTAT	IFC1010-36105	Potentiostat
VINIT	POTEN	0.00000E+000	F	Initial E (V)
VLIMIT1	POTEN	4.00000E-001	F	Scan Limit 1 (V)
VLIMIT2	POTEN	-3.00000E-001	F	Scan Limit 2 (V)
VFINAL	POTEN	0.00000E+000	F	Final E (V)
SCANRATE	QUANT	2.00000E+002	Scan Rate (mV/s)
STEPSIZE	QUANT	2.00000E+000	Step Size (mV)
CYCLES	IQUANT	20	Cycles (#)
IMODE	SELECTOR	0	I/E Range Mode
IRANGE	QUANT	3.00000E-001	Max Current (mA)
AREA	QUANT	1.00000E+000	Sample Area (cm^2)
EQDELAY	QUANT	0.00000E+000	Equil. Time (s)
IRCOMP	SELECTOR	0	IRComp
PFCOR	QUANT	5.00000E+001	PF Corr. (ohm)
SAMPLINGMODE	SELECTOR	1	Sampling Mode
EOC	QUANT	-0.1279954	Open Circuit (V)
ELECTRODETYPE	SELECTOR	0	Electrode Type
STRIPPING	TOGGLE	F	Used for Stripping
SEQUENCER	TOGGLE	TRUE	Run as Sequence
PSTATMODEL	IQUANT	64	Pstat Model
PSTATSECTION	LABEL	IFC1010-36105	Pstat Section
PSTATSERIALNO	LABEL	36105	Pstat Serial Number
CTRLMODE	IQUANT	1	Control Mode
ELECTROMETER	IQUANT	0	RE=0 or CS=1
IESTAB	IQUANT	2	I/E Stability
CASPEED	IQUANT	4	Control Amp Speed
CONVENTION	IQUANT	1	Current Convention
ICHRANGE	IQUANT	2	Ich Range
ICHRANGEMODE	TOGGLE	F	Ich Auto Range
ICHOFFSETENABLE	TOGGLE	F	Ich Offset Enable
ICHOFFSET	QUANT	0	Ich Offset (V)
ICHFILTER	IQUANT	3	Ich Filter
VCHRANGE	IQUANT	2	Vch Range
VCHRANGEMODE	TOGGLE	F	Vch Auto Range
VCHOFFSETENABLE	TOGGLE	F	Vch Offset Enable
VCHOFFSET	QUANT	0	Vch Offset (V)
VCHFILTER	IQUANT	3	Vch Filter
IERANGELOWERLIMIT	IQUANT	4	I/E Range Lower Limit
IERANGEMODE	TOGGLE	T	I/E AutoRange
IERANGE	IQUANT	9	I/E Range
ACHSELECT	IQUANT	0	Ach Select
ACHRANGE	IQUANT	2	Ach Range
ACHOFFSETENABLE	TOGGLE	F	Ach Offset Enable
ACHOFFSET	QUANT	0	Ach Offset (V)
ACHFILTER	IQUANT	1	Ach Filter
SENSECABLEID	IQUANT	13	Sense Cable ID
PWRCABLEID	IQUANT	13	Power Cable ID
DCCALDATE	LABEL	10/17/2023	DC Calibration Date
ACCALDATE	LABEL	6/2/2023	AC Calibration Date
FRAMEWORKVERSION	LABEL	7.10.3	Framework Version
INSTRUMENTVERSION	LABEL	4.91	Instrument Version
COMMVERSION	LABEL	3.10	Communications Version
CPUPLDVERSION	LABEL	2.22	CPU PLD Version
CTRLPLDVERSION	LABEL	0.00	CTRL PLD Version
PSTATPLDVERSION	LABEL	0.00	PSTAT PLD Version
CURVE1	TABLE
	Pt	T	Vf	Im	Vu	Sig	Ach	IERange	Over	Temp
	#	s	V vs. Ref.	A	V	V	V	#	bits	deg C
	0	0.01	1.20183E-004	2.79655E-006	0.00000E+000	2.72319E-006	0.00000E+000	9	...........	1490.70
	6	0.07	1.21800E-002	-5.75073E-007	0.00000E+000	1.20059E-002	0.00000E+000	6	.....h.....	1490.70
	12	0.13	2.42273E-002	-4.84647E-007	0.00000E+000	2.39966E-002	0.00000E+000	6	.....h.....	1490.70
	18	0.19	3.62162E-002	-1.25181E-007	0.00000E+000	3.59998E-002	0.00000E+000	6	.....h.....	1490.70
	24	0.25	4.82084E-002	4.21809E-007	0.00000E+000	4.80031E-002	0.00000E+000	6	.....h.....	1490.70
	30	0.31	6.01523E-002	1.51114E-006	0.00000E+000	5.99938E-002	0.00000E+000	7	...........	1490.70
	36	0.37	7.21820E-002	2.75628E-006	0.00000E+000	7.19970E-002	0.00000E+000	7	...........	1490.70
	42	0.43	8.42001E-002	3.92345E-006	0.00000E+000	8.40002E-002	0.00000E+000	7	.....h.....	1490.70
	48	0.49	9.62090E-002	5.23295E-006	0.00000E+000	9.60034E-002	0.00000E+000	7	.....h.....	1490.70
	54	0.55	1.08211E-001	6.74518E-006	0.00000E+000	1.07994E-001	0.00000E+000	7	.....h.....	1490.70
	60	0.61	1.20234E-001	8.40911E-006	0.00000E+000	1.19997E-001	0.00000E+000	7	....ih..i..	1490.70
	66	0.67	1.32135E-001	1.01160E-005	0.00000E+000	1.32001E-001	0.00000E+000	8	...........	1490.70
	72	0.73	1.44119E-001	1.20086E-005	0.00000E+000	1.44004E-001	0.00000E+000	8	...........	1490.70
	78	0.79	1.56118E-001	1.41605E-005	0.00000E+000	1.55994E-001	0.00000E+000	8	...........	1490.70
	84	0.85	1.68125E-001	1.64430E-005	0.00000E+000	1.67998E-001	0.00000E+000	8	...........	1490.70
	90	0.91	1.80157E-001	1.88993E-005	0.00000E+000	1.80001E-001	0.00000E+000	8	...........	1490.70
	96	0.97	1.92153E-001	2.15303E-005	0.00000E+000	1.92004E-001	0.00000E+000	8	...........	1490.70
	102	1.03	2.04116E-001	2.42137E-005	0.00000E+000	2.03995E-001	0.00000E+000	8	...........	1490.70
	108	1.09	2.16130E-001	2.70142E-005	0.00000E+000	2.15998E-001	0.00000E+000	8	...........	1490.70
	114	1.15	2.28159E-001	2.98734E-005	0.00000E+000	2.28001E-001	0.00000E+000	8	...........	1490.70
	120	1.21	2.40150E-001	3.27638E-005	0.00000E+000	2.40004E-001	0.00000E+000	8	...........	1490.70
	126	1.27	2.52125E-001	3.58084E-005	0.00000E+000	2.51995E-001	0.00000E+000	8	...........	1490.70
	132	1.33	2.64138E-001	3.89344E-005	0.00000E+000	2.63998E-001	0.00000E+000	8	...........	1490.70
	138	1.39	2.76167E-001	4.20707E-005	0.00000E+000	2.76002E-001	0.00000E+000	8	...........	1490.70
	144	1.45	2.88160E-001	4.52560E-005	0.00000E+000	2.88005E-001	0.00000E+000	8	...........	1490.70
	150	1.51	3.00143E-001	4.84255E-005	0.00000E+000	2.99995E-001	0.00000E+000	8	...........	1490.70
	156	1.57	3.12171E-001	5.17071E-005	0.00000E+000	3.11999E-001	0.00000E+000	8	...........	1490.70
	162	1.63	3.24177E-001	5.50743E-005	0.00000E+000	3.24002E-001	0.00000E+000	8	...........	1489.61
	168	1.69	3.36182E-001	5.85282E-005	0.00000E+000	3.36005E-001	0.00000E+000	8	...........	1489.61
	174	1.75	3.48166E-001	6.21663E-005	0.00000E+000	3.47996E-001	0.00000E+000	8	...........	1489.61
	180	1.81	3.60195E-001	6.59482E-005	0.00000E+000	3.59999E-001	0.00000E+000	8	...........	1489.61
	186	1.87	3.72174E-001	6.98646E-005	0.00000E+000	3.72002E-001	0.00000E+000	8	...........	1489.61
	192	1.93	3.84187E-001	7.38841E-005	0.00000E+000	3.84005E-001	0.00000E+000	8	...........	1489.61
	198	1.99	3.96187E-001	7.80395E-005	0.00000E+000	3.95996E-001	0.00000E+000	8	...........	1489.61
	204	2.05	3.92180E-001	6.12501E-005	0.00000E+000	3.91995E-001	0.00000E+000	8	...........	1489.61
	210	2.11	3.80202E-001	4.52644E-005	0.00000E+000	3.80004E-001	0.00000E+000	8	...........	1489.61
	216	2.17	3.68176E-001	3.50350E-005	0.00000E+000	3.68001E-001	0.00000E+000	8	...........	1489.61
	222	2.23	3.56164E-001	2.78064E-005	0.00000E+000	3.55998E-001	0.00000E+000	8	...........	1489.61
	228	2.29	3.44158E-001	2.23456E-005	0.00000E+000	3.43995E-001	0.00000E+000	8	...........	1489.61
	234	2.35	3.32184E-001	1.80517E-005	0.00000E+000	3.32004E-001	0.00000E+000	8	...........	1489.61
	240	2.41	3.20150E-001	1.44964E-005	0.00000E+000	3.20001E-001	0.00000E+000	8	...........	1489.61
	246	2.47	3.08184E-001	1.14124E-005	0.00000E+000	3.07998E-001	0.00000E+000	8	...........	1489.61
	252	2.53	2.96171E-001	8.67539E-006	0.00000E+000	2.95994E-001	0.00000E+000	8	...........	1489.61
	258	2.59	2.84130E-001	7.24353E-006	0.00000E+000	2.84004E-001	0.00000E+000	7	.....h.....	1489.61
	264	2.65	2.72131E-001	5.33763E-006	0.00000E+000	2.72000E-001	0.00000E+000	7	.....h.....	1489.33
	270	2.71	2.60131E-001	3.93411E-006	0.00000E+000	2.59997E-001	0.00000E+000	7	.....h.....	1489.33
	276	2.77	2.48104E-001	2.96277E-006	0.00000E+000	2.47994E-001	0.00000E+000	7	...........	1489.33
	282	2.83	2.36119E-001	2.36992E-006	0.00000E+000	2.36003E-001	0.00000E+000	7	...........	1489.33
	288	2.89	2.24125E-001	2.07598E-006	0.00000E+000	2.24000E-001	0.00000E+000	7	...........	1489.33
	294	2.95	2.12126E-001	1.90890E-006	0.00000E+000	2.11997E-001	0.00000E+000	7	...........	1489.33
	300	3.01	2.00121E-001	1.78053E-006	0.00000E+000	1.99994E-001	0.00000E+000	7	...........	1489.33
[...]
	13933	139.34	-1.33671E-001	-1.09451E-006	0.00000E+000	-1.33996E-001	0.00000E+000	6	....ih..i..	1489.42
	13935	139.36	-1.29677E-001	-1.09451E-006	0.00000E+000	-1.29995E-001	0.00000E+000	6	....ih..i..	1489.42
	13937	139.38	-1.25685E-001	-1.09451E-006	0.00000E+000	-1.26006E-001	0.00000E+000	6	....ih..i..	1489.42
	13939	139.4	-1.21697E-001	-1.09451E-006	0.00000E+000	-1.22005E-001	0.00000E+000	6	....ih..i..	1489.42
	13941	139.42	-1.17705E-001	-1.09451E-006	0.00000E+000	-1.18004E-001	0.00000E+000	6	....ih..i..	1489.42
	13943	139.44	-1.13702E-001	-1.09451E-006	0.00000E+000	-1.14003E-001	0.00000E+000	6	....ih..i..	1489.42
	13945	139.46	-1.09692E-001	-1.09451E-006	0.00000E+000	-1.10002E-001	0.00000E+000	6	....ih..i..	1489.42
	13947	139.48	-1.05721E-001	-1.09451E-006	0.00000E+000	-1.06001E-001	0.00000E+000	6	....ih..i..	1489.42
	13949	139.5	-1.01714E-001	-1.09451E-006	0.00000E+000	-1.02000E-001	0.00000E+000	6	....ih..i..	1489.42
	13951	139.52	-9.77210E-002	-1.09451E-006	0.00000E+000	-9.79985E-002	0.00000E+000	6	....ih..i..	1489.42
	13953	139.54	-9.37399E-002	-1.09451E-006	0.00000E+000	-9.39974E-002	0.00000E+000	6	....ih..i..	1489.42
	13955	139.56	-8.97548E-002	-1.09451E-006	0.00000E+000	-8.99963E-002	0.00000E+000	6	....ih..i..	1489.42
	13957	139.58	-8.57454E-002	-1.09451E-006	0.00000E+000	-8.59953E-002	0.00000E+000	6	....ih..i..	1489.42
	13959	139.6	-8.17486E-002	-1.09451E-006	0.00000E+000	-8.19942E-002	0.00000E+000	6	....ih..i..	1489.42
	13961	139.62	-7.77751E-002	-1.09451E-006	0.00000E+000	-7.80056E-002	0.00000E+000	6	....ih..i..	1489.24
	13963	139.64	-7.37732E-002	-1.09451E-006	0.00000E+000	-7.40046E-002	0.00000E+000	6	....ih..i..	1489.24
	13965	139.66	-6.97814E-002	-1.09451E-006	0.00000E+000	-7.00035E-002	0.00000E+000	6	....ih..i..	1489.24
	13967	139.68	-6.57778E-002	-1.09451E-006	0.00000E+000	-6.60024E-002	0.00000E+000	6	....ih..i..	1489.24
	13969	139.7	-6.17701E-002	-1.09451E-006	0.00000E+000	-6.20013E-002	0.00000E+000	6	....ih..i..	1489.24
	13971	139.72	-5.78058E-002	-1.09451E-006	0.00000E+000	-5.80003E-002	0.00000E+000	6	....ih..i..	1489.24
	13973	139.74	-5.38081E-002	-1.09451E-006	0.00000E+000	-5.39992E-002	0.00000E+000	6	....ih..i..	1489.24
	13975	139.76	-4.97737E-002	-1.09451E-006	0.00000E+000	-4.99981E-002	0.00000E+000	6	....ih..i..	1489.24
	13977	139.78	-4.58136E-002	-1.09451E-006	0.00000E+000	-4.59971E-002	0.00000E+000	6	....ih..i..	1489.24
	13979	139.8	-4.18201E-002	-1.09451E-006	0.00000E+000	-4.19960E-002	0.00000E+000	6	....ih..i..	1489.24
	13981	139.82	-3.78132E-002	-1.09451E-006	0.00000E+000	-3.79949E-002	0.00000E+000	6	....ih..i..	1489.24
	13983	139.84	-3.38289E-002	-1.09451E-006	0.00000E+000	-3.40064E-002	0.00000E+000	6	....ih..i..	1489.24
	13985	139.86	-2.98354E-002	-1.09451E-006	0.00000E+000	-3.00053E-002	0.00000E+000	6	....ih..i..	1489.24
	13987	139.88	-2.58227E-002	-1.09451E-006	0.00000E+000	-2.60042E-002	0.00000E+000	6	....ih..i..	1489.24
	13989	139.9	-2.18341E-002	-1.09451E-006	0.00000E+000	-2.20032E-002	0.00000E+000	6	....ih..i..	1489.24
	13991	139.92	-1.78415E-002	-1.09451E-006	0.00000E+000	-1.80021E-002	0.00000E+000	6	....ih..i..	1489.24
	13993	139.94	-1.38513E-002	-1.09451E-006	0.00000E+000	-1.40010E-002	0.00000E+000	6	....ih..i..	1489.24
	13995	139.96	-9.82522E-003	-1.09451E-006	0.00000E+000	-9.99995E-003	0.00000E+000	6	....ih..i..	1489.24
	13997	139.98	-5.83922E-003	-1.09451E-006	0.00000E+000	-5.99888E-003	0.00000E+000	6	....ih..i..	1489.24
	13999	140	-1.85822E-003	-1.09451E-006	0.00000E+000	-1.99781E-003	0.00000E+000	6	....ih..i..	1489.24
	14000	140.01	6.34423E-005	-8.34158E-008	0.00000E+000	2.72319E-006	0.00000E+000	7	...........	1489.24

File: MYCIE_#2.DTA
EXPLAIN
TAG	CV
TITLE	LABEL	MYCIE	Test Identifier
DATE	LABEL	17.7.2024	Date
TIME	LABEL	13:11:33	Time
NOTES	NOTES	1	Notes...

PSTAT	PSTAT	IFC1010-34090	Potentiostat
VINIT	POTEN	0.00000E+000	F	Initial E (V)
VLIMIT1	POTEN	4.00000E-001	F	Scan Limit 1 (V)
VLIMIT2	POTEN	-3.00000E-001	F	Scan Limit 2 (V)
VFINAL	POTEN	0.00000E+000	F	Final E (V)
SCANRATE	QUANT	2.00000E+002	Scan Rate (mV/s)
STEPSIZE	QUANT	2.00000E+000	Step Size (mV)
CYCLES	IQUANT	50	Cycles (#)
IMODE	SELECTOR	0	I/E Range Mode
IRANGE	QUANT	3.00000E-001	Max Current (mA)
AREA	QUANT	1.00000E+000	Sample Area (cm^2)
EQDELAY	QUANT	0.00000E+000	Equil. Time (s)
IRCOMP	SELECTOR	0	IRComp
PFCOR	QUANT	5.00000E+001	PF Corr. (ohm)
SAMPLINGMODE	SELECTOR	1	Sampling Mode
EOC	QUANT	0.7205974	Open Circuit (V)
ELECTRODETYPE	SELECTOR	0	Electrode Type
STRIPPING	TOGGLE	F	Used for Stripping
SEQUENCER	TOGGLE	TRUE	Run as Sequence
PSTATMODEL	IQUANT	64	Pstat Model
PSTATSECTION	LABEL	IFC1010-34090	Pstat Section
PSTATSERIALNO	LABEL	34090	Pstat Serial Number
CTRLMODE	IQUANT	1	Control Mode
ELECTROMETER	IQUANT	0	RE=0 or CS=1
IESTAB	IQUANT	2	I/E Stability
CASPEED	IQUANT	4	Control Amp Speed
CONVENTION	IQUANT	1	Current Convention
ICHRANGE	IQUANT	2	Ich Range
ICHRANGEMODE	TOGGLE	F	Ich Auto Range
ICHOFFSETENABLE	TOGGLE	F	Ich Offset Enable
ICHOFFSET	QUANT	0	Ich Offset (V)
ICHFILTER	IQUANT	3	Ich Filter
VCHRANGE	IQUANT	2	Vch Range
VCHRANGEMODE	TOGGLE	F	Vch Auto Range
VCHOFFSETENABLE	TOGGLE	F	Vch Offset Enable
VCHOFFSET	QUANT	0	Vch Offset (V)
VCHFILTER	IQUANT	3	Vch Filter
IERANGELOWERLIMIT	IQUANT	4	I/E Range Lower Limit
IERANGEMODE	TOGGLE	T	I/E AutoRange
IERANGE	IQUANT	9	I/E Range
ACHSELECT	IQUANT	0	Ach Select
ACHRANGE	IQUANT	2	Ach Range
ACHOFFSETENABLE	TOGGLE	F	Ach Offset Enable
ACHOFFSET	QUANT	0	Ach Offset (V)
ACHFILTER	IQUANT	1	Ach Filter
SENSECABLEID	IQUANT	13	Sense Cable ID
PWRCABLEID	IQUANT	13	Power Cable ID
DCCALDATE	LABEL	1/30/2024	DC Calibration Date
ACCALDATE	LABEL	1/8/2024	AC Calibration Date
FRAMEWORKVERSION	LABEL	7.10.3	Framework Version
INSTRUMENTVERSION	LABEL	4.91	Instrument Version
COMMVERSION	LABEL	3.10	Communications Version
CPUPLDVERSION	LABEL	2.22	CPU PLD Version
CTRLPLDVERSION	LABEL	0.00	CTRL PLD Version
PSTATPLDVERSION	LABEL	0.00	PSTAT PLD Version
CURVE1	TABLE
	Pt	T	Vf	Im	Vu	Sig	Ach	IERange	Over	Temp
	#	s	V vs. Ref.	A	V	V	V	#	bits	deg C
	0	0.01	2.59006E-004	1.09253E-003	0.00000E+000	1.72108E-006	0.00000E+000	9	....ih..i..	1467.79
	6	0.07	1.22442E-002	9.18173E-004	0.00000E+000	1.20005E-002	0.00000E+000	10	...........	1467.79
	12	0.13	2.42760E-002	8.39869E-004	0.00000E+000	2.39993E-002	0.00000E+000	10	...........	1467.79
	18	0.19	3.62712E-002	8.01632E-004	0.00000E+000	3.59981E-002	0.00000E+000	9	...........	1467.79
	24	0.25	4.82997E-002	7.85481E-004	0.00000E+000	4.79968E-002	0.00000E+000	9	...........	1467.79
	30	0.31	6.02790E-002	7.80586E-004	0.00000E+000	5.99956E-002	0.00000E+000	9	...........	1467.79
	36	0.37	7.22925E-002	7.82360E-004	0.00000E+000	7.19944E-002	0.00000E+000	9	...........	1467.79
	42	0.43	8.43135E-002	7.90643E-004	0.00000E+000	8.40057E-002	0.00000E+000	9	...........	1467.79
	48	0.49	9.63145E-002	8.06358E-004	0.00000E+000	9.60045E-002	0.00000E+000	9	...........	1467.79
	54	0.55	1.08310E-001	8.32895E-004	0.00000E+000	1.08003E-001	0.00000E+000	9	...........	1467.79
	60	0.61	1.20296E-001	8.75082E-004	0.00000E+000	1.20002E-001	0.00000E+000	9	...........	1467.79
	66	0.67	1.32324E-001	9.48028E-004	0.00000E+000	1.32001E-001	0.00000E+000	10	...........	1467.79
	72	0.73	1.44327E-001	1.08571E-003	0.00000E+000	1.44000E-001	0.00000E+000	10	...........	1467.79
	78	0.79	1.56339E-001	1.38076E-003	0.00000E+000	1.55998E-001	0.00000E+000	10	...........	1467.79
	84	0.85	1.68354E-001	1.65104E-003	0.00000E+000	1.67997E-001	0.00000E+000	10	...........	1467.70
	90	0.91	1.80357E-001	1.51680E-003	0.00000E+000	1.79996E-001	0.00000E+000	10	...........	1467.70
	96	0.97	1.92350E-001	1.27540E-003	0.00000E+000	1.91995E-001	0.00000E+000	10	...........	1467.70
	102	1.03	2.04339E-001	1.09480E-003	0.00000E+000	2.03993E-001	0.00000E+000	10	...........	1467.70
	108	1.09	2.16344E-001	9.21771E-004	0.00000E+000	2.16005E-001	0.00000E+000	10	...........	1467.70
	114	1.15	2.28357E-001	8.44792E-004	0.00000E+000	2.28004E-001	0.00000E+000	10	...........	1467.70
	120	1.21	2.40383E-001	8.02825E-004	0.00000E+000	2.40002E-001	0.00000E+000	10	...........	1467.70
	126	1.27	2.52362E-001	7.58664E-004	0.00000E+000	2.52001E-001	0.00000E+000	9	...........	1467.70
	132	1.33	2.64384E-001	7.16760E-004	0.00000E+000	2.64000E-001	0.00000E+000	9	...........	1467.70
	138	1.39	2.76396E-001	6.84840E-004	0.00000E+000	2.75999E-001	0.00000E+000	9	...........	1467.70
	144	1.45	2.88386E-001	6.65661E-004	0.00000E+000	2.87997E-001	0.00000E+000	9	...........	1467.70
	150	1.51	3.00395E-001	6.54898E-004	0.00000E+000	2.99996E-001	0.00000E+000	9	...........	1467.70
	156	1.57	3.12407E-001	6.50250E-004	0.00000E+000	3.11995E-001	0.00000E+000	9	...........	1467.70
	162	1.63	3.24401E-001	6.50035E-004	0.00000E+000	3.23994E-001	0.00000E+000	9	...........	1467.70
	168	1.69	3.36429E-001	6.53226E-004	0.00000E+000	3.36005E-001	0.00000E+000	9	...........	1467.70
	174	1.75	3.48444E-001	6.58619E-004	0.00000E+000	3.48004E-001	0.00000E+000	9	...........	1467.70
	180	1.81	3.60447E-001	6.65956E-004	0.00000E+000	3.60003E-001	0.00000E+000	9	...........	1467.31
	186	1.87	3.72456E-001	6.74467E-004	0.00000E+000	3.72001E-001	0.00000E+000	9	...........	1467.25
	192	1.93	3.84441E-001	6.84001E-004	0.00000E+000	3.84000E-001	0.00000E+000	9	...........	1467.25
	198	1.99	3.96436E-001	6.93965E-004	0.00000E+000	3.95999E-001	0.00000E+000	9	...........	1467.25
	204	2.05	3.92447E-001	6.71110E-004	0.00000E+000	3.91999E-001	0.00000E+000	9	...........	1467.25
	210	2.11	3.80446E-001	6.49942E-004	0.00000E+000	3.80001E-001	0.00000E+000	9	...........	1467.25
	216	2.17	3.68418E-001	6.33994E-004	0.00000E+000	3.68002E-001	0.00000E+000	9	...........	1467.25
	222	2.23	3.56414E-001	6.17512E-004	0.00000E+000	3.56003E-001	0.00000E+000	9	...........	1467.25
	228	2.29	3.44409E-001	6.01675E-004	0.00000E+000	3.44004E-001	0.00000E+000	9	...........	1467.25
	234	2.35	3.32417E-001	5.81760E-004	0.00000E+000	3.32005E-001	0.00000E+000	9	...........	1467.25
	240	2.41	3.20385E-001	5.65067E-004	0.00000E+000	3.19994E-001	0.00000E+000	9	...........	1467.25
	246	2.47	3.08404E-001	5.51222E-004	0.00000E+000	3.07995E-001	0.00000E+000	9	...........	1467.25
	252	2.53	2.96404E-001	5.38904E-004	0.00000E+000	2.95997E-001	0.00000E+000	9	...........	1467.25
	258	2.59	2.84416E-001	5.27524E-004	0.00000E+000	2.83998E-001	0.00000E+000	9	...........	1467.25
	264	2.65	2.72401E-001	5.16767E-004	0.00000E+000	2.71999E-001	0.00000E+000	9	...........	1467.25
	270	2.71	2.60385E-001	5.06152E-004	0.00000E+000	2.60000E-001	0.00000E+000	9	...........	1467.25
	276	2.77	2.48353E-001	4.95884E-004	0.00000E+000	2.48001E-001	0.00000E+000	9	...........	1467.25
	282	2.83	2.36353E-001	4.85930E-004	0.00000E+000	2.36003E-001	0.00000E+000	9	...........	1467.16
	288	2.89	2.24363E-001	4.76101E-004	0.00000E+000	2.24004E-001	0.00000E+000	9	...........	1467.16
	294	2.95	2.12357E-001	4.66606E-004	0.00000E+000	2.12005E-001	0.00000E+000	9	...........	1467.16
	300	3.01	2.00346E-001	4.57670E-004	0.00000E+000	1.99994E-001	0.00000E+000	9	...........	1467.16
[...]
	34933	349.34	-1.33784E-001	3.08924E-004	0.00000E+000	-1.33997E-001	0.00000E+000	9	...........	1467.16
	34935	349.36	-1.29793E-001	3.07234E-004	0.00000E+000	-1.29998E-001	0.00000E+000	9	...........	1467.16
	34937	349.38	-1.25773E-001	3.05435E-004	0.00000E+000	-1.25998E-001	0.00000E+000	9	...........	1467.16
	34939	349.4	-1.21799E-001	3.03402E-004	0.00000E+000	-1.21998E-001	0.00000E+000	9	...........	1467.16
	34941	349.42	-1.17776E-001	3.01245E-004	0.00000E+000	-1.17999E-001	0.00000E+000	9	...........	1467.16
	34943	349.44	-1.13780E-001	2.99137E-004	0.00000E+000	-1.13999E-001	0.00000E+000	9	...........	1467.16
	34945	349.46	-1.09777E-001	2.96904E-004	0.00000E+000	-1.10000E-001	0.00000E+000	9	...........	1467.16
	34947	349.48	-1.05791E-001	2.94566E-004	0.00000E+000	-1.06000E-001	0.00000E+000	9	...........	1467.16
	34949	349.5	-1.01781E-001	2.92170E-004	0.00000E+000	-1.02000E-001	0.00000E+000	9	...........	1467.16
	34951	349.52	-9.77781E-002	2.89704E-004	0.00000E+000	-9.80008E-002	0.00000E+000	9	...........	1467.16
	34953	349.54	-9.37823E-002	2.87306E-004	0.00000E+000	-9.40012E-002	0.00000E+000	9	...........	1467.16
	34955	349.56	-8.97864E-002	2.84720E-004	0.00000E+000	-9.00016E-002	0.00000E+000	9	...........	1467.16
	34957	349.58	-8.57663E-002	2.82200E-004	0.00000E+000	-8.60020E-002	0.00000E+000	9	...........	1467.16
	34959	349.6	-8.17646E-002	2.79632E-004	0.00000E+000	-8.20024E-002	0.00000E+000	9	...........	1467.16
	34961	349.62	-7.77862E-002	2.76882E-004	0.00000E+000	-7.80028E-002	0.00000E+000	9	...........	1467.16
	34963	349.64	-7.37553E-002	2.74286E-004	0.00000E+000	-7.40032E-002	0.00000E+000	9	...........	1467.16
	34965	349.66	-6.97594E-002	2.71517E-004	0.00000E+000	-7.00037E-002	0.00000E+000	9	...........	1467.16
	34967	349.68	-6.57694E-002	2.68621E-004	0.00000E+000	-6.60041E-002	0.00000E+000	9	...........	1467.16
	34969	349.7	-6.17610E-002	2.65682E-004	0.00000E+000	-6.20045E-002	0.00000E+000	9	...........	1467.16
	34971	349.72	-5.77784E-002	2.62645E-004	0.00000E+000	-5.80049E-002	0.00000E+000	9	...........	1467.16
	34973	349.74	-5.37684E-002	2.59489E-004	0.00000E+000	-5.40053E-002	0.00000E+000	9	...........	1467.16
	34975	349.76	-4.97558E-002	2.56197E-004	0.00000E+000	-5.00057E-002	0.00000E+000	9	...........	1467.16
	34977	349.78	-4.57458E-002	2.52837E-004	0.00000E+000	-4.60061E-002	0.00000E+000	9	...........	1467.16
	34979	349.8	-4.17624E-002	2.49425E-004	0.00000E+000	-4.20065E-002	0.00000E+000	9	...........	1467.16
	34981	349.82	-3.77415E-002	2.45856E-004	0.00000E+000	-3.79944E-002	0.00000E+000	9	...........	1467.25
	34983	349.84	-3.37473E-002	2.42091E-004	0.00000E+000	-3.39948E-002	0.00000E+000	9	...........	1467.25
	34985	349.86	-2.97539E-002	2.38192E-004	0.00000E+000	-2.99952E-002	0.00000E+000	9	...........	1467.25
	34987	349.88	-2.57430E-002	2.34185E-004	0.00000E+000	-2.59956E-002	0.00000E+000	9	...........	1467.25
	34989	349.9	-2.17288E-002	2.30296E-004	0.00000E+000	-2.19960E-002	0.00000E+000	9	...........	1467.25
	34991	349.92	-1.77321E-002	2.26039E-004	0.00000E+000	-1.79964E-002	0.00000E+000	9	...........	1467.25
	34993	349.94	-1.37470E-002	2.21756E-004	0.00000E+000	-1.39969E-002	0.00000E+000	9	...........	1467.25
	34995	349.96	-9.73362E-003	2.17469E-004	0.00000E+000	-9.99726E-003	0.00000E+000	9	...........	1467.25
	34997	349.98	-5.73106E-003	2.13169E-004	0.00000E+000	-5.99767E-003	0.00000E+000	9	...........	1467.25
	34999	350	-1.73768E-003	2.08815E-004	0.00000E+000	-1.99808E-003	0.00000E+000	9	...........	1467.25
	35000	350.01	2.96538E-004	2.07297E-004	0.00000E+000	1.72108E-006	0.00000E+000	9	...........	1467.25