Folder: gamry_post_processing_/input (part 14)

File: CV_ECSA_#1_#3.DTA
EXPLAIN
TAG	CV
TITLE	LABEL	ECSA	Test Identifier
DATE	LABEL	20.8.2024	Date
TIME	LABEL	8:37:12	Time
NOTES	NOTES	1	Notes...

PSTAT	PSTAT	IFC1010-36105	Potentiostat
VINIT	POTEN	-2.00000E-001	F	A Potential (V)
VLIMIT1	POTEN	0.00000E+000	F	A Potential (V)
VLIMIT2	POTEN	-2.00000E-001	F	A Potential (V)
VFINAL	POTEN	-2.00000E-001	F	A Potential (V)
SCANRATE	QUANT	3.00000E+001	A Real Number
STEPSIZE	QUANT	1.00000E+000	Step Size (mV)
CYCLES	IQUANT	3	Cycles (#)
IMODE	SELECTOR	1	I/E Range Mode
IRANGE	QUANT	3.00000E-001	Max Current (mA)
AREA	QUANT	1.00000E+000	Sample Area (cm^2)
EQDELAY	QUANT	0.00000E+000	Equil. Time (s)
IRCOMP	SELECTOR	0	IRComp
PFCOR	QUANT	5.00000E+001	PF Corr. (ohm)
SAMPLINGMODE	SELECTOR	2	Sampling Mode
EOC	QUANT	-0.1790659	Open Circuit (V)
ELECTRODETYPE	SELECTOR	0	Electrode Type
STRIPPING	TOGGLE	F	Used for Stripping
SEQUENCER	TOGGLE	TRUE	Run as Sequence
PSTATMODEL	IQUANT	64	Pstat Model
PSTATSECTION	LABEL	IFC1010-36105	Pstat Section
PSTATSERIALNO	LABEL	36105	Pstat Serial Number
CTRLMODE	IQUANT	1	Control Mode
ELECTROMETER	IQUANT	0	RE=0 or CS=1
IESTAB	IQUANT	2	I/E Stability
CASPEED	IQUANT	4	Control Amp Speed
CONVENTION	IQUANT	1	Current Convention
ICHRANGE	IQUANT	2	Ich Range
ICHRANGEMODE	TOGGLE	F	Ich Auto Range
ICHOFFSETENABLE	TOGGLE	F	Ich Offset Enable
ICHOFFSET	QUANT	0	Ich Offset (V)
ICHFILTER	IQUANT	3	Ich Filter
VCHRANGE	IQUANT	1	Vch Range
VCHRANGEMODE	TOGGLE	F	Vch Auto Range
VCHOFFSETENABLE	TOGGLE	F	Vch Offset Enable
VCHOFFSET	QUANT	0	Vch Offset (V)
VCHFILTER	IQUANT	3	Vch Filter
IERANGELOWERLIMIT	IQUANT	4	I/E Range Lower Limit
IERANGEMODE	TOGGLE	F	I/E AutoRange
IERANGE	IQUANT	9	I/E Range
ACHSELECT	IQUANT	0	Ach Select
ACHRANGE	IQUANT	2	Ach Range
ACHOFFSETENABLE	TOGGLE	F	Ach Offset Enable
ACHOFFSET	QUANT	0	Ach Offset (V)
ACHFILTER	IQUANT	1	Ach Filter
SENSECABLEID	IQUANT	13	Sense Cable ID
PWRCABLEID	IQUANT	13	Power Cable ID
DCCALDATE	LABEL	10/17/2023	DC Calibration Date
ACCALDATE	LABEL	6/2/2023	AC Calibration Date
FRAMEWORKVERSION	LABEL	7.10.3	Framework Version
INSTRUMENTVERSION	LABEL	4.91	Instrument Version
COMMVERSION	LABEL	3.10	Communications Version
CPUPLDVERSION	LABEL	2.22	CPU PLD Version
CTRLPLDVERSION	LABEL	0.00	CTRL PLD Version
PSTATPLDVERSION	LABEL	0.00	PSTAT PLD Version
CURVE1	TABLE
	Pt	T	Vf	Im	Vu	Sig	Ach	IERange	Over	Temp
	#	s	V vs. Ref.	A	V	V	V	#	bits	deg C
	0	0.033333	-2.00079E-001	-1.77776E-007	0.00000E+000	-1.99996E-001	0.00000E+000	9	...........	1489.15
	5	0.2	-1.95084E-001	8.98419E-007	0.00000E+000	-1.94995E-001	0.00000E+000	9	...........	1489.15
	10	0.366667	-1.90092E-001	9.88143E-007	0.00000E+000	-1.90006E-001	0.00000E+000	9	...........	1489.15
	15	0.533333	-1.85090E-001	1.06139E-006	0.00000E+000	-1.85005E-001	0.00000E+000	9	...........	1488.69
	20	0.7	-1.80089E-001	1.11870E-006	0.00000E+000	-1.80004E-001	0.00000E+000	9	...........	1488.69
	25	0.866667	-1.75087E-001	1.16468E-006	0.00000E+000	-1.75002E-001	0.00000E+000	9	...........	1488.69
	30	1.03333	-1.70084E-001	1.19347E-006	0.00000E+000	-1.70001E-001	0.00000E+000	9	...........	1488.69
	35	1.2	-1.65083E-001	1.21854E-006	0.00000E+000	-1.65000E-001	0.00000E+000	9	...........	1488.69
	40	1.36667	-1.60083E-001	1.23913E-006	0.00000E+000	-1.59998E-001	0.00000E+000	9	...........	1488.69
	45	1.53333	-1.55080E-001	1.25628E-006	0.00000E+000	-1.54997E-001	0.00000E+000	9	...........	1488.97
	50	1.7	-1.50079E-001	1.26169E-006	0.00000E+000	-1.49996E-001	0.00000E+000	9	...........	1488.97
	55	1.86667	-1.45076E-001	1.28795E-006	0.00000E+000	-1.44994E-001	0.00000E+000	9	...........	1488.97
	60	2.03333	-1.40088E-001	1.30020E-006	0.00000E+000	-1.40005E-001	0.00000E+000	9	...........	1488.97
	65	2.2	-1.35086E-001	1.31508E-006	0.00000E+000	-1.35004E-001	0.00000E+000	9	...........	1488.97
	70	2.36667	-1.30084E-001	1.32954E-006	0.00000E+000	-1.30003E-001	0.00000E+000	9	...........	1488.97
	75	2.53333	-1.25082E-001	1.33772E-006	0.00000E+000	-1.25001E-001	0.00000E+000	9	...........	1489.06
	80	2.7	-1.20077E-001	1.34031E-006	0.00000E+000	-1.20000E-001	0.00000E+000	9	...........	1489.06
	85	2.86667	-1.15077E-001	1.35841E-006	0.00000E+000	-1.14999E-001	0.00000E+000	9	...........	1489.06
	90	3.03333	-1.10072E-001	1.36675E-006	0.00000E+000	-1.09997E-001	0.00000E+000	9	...........	1489.06
	95	3.2	-1.05074E-001	1.37275E-006	0.00000E+000	-1.04996E-001	0.00000E+000	9	...........	1489.06
	100	3.36667	-1.00070E-001	1.38113E-006	0.00000E+000	-9.99947E-002	0.00000E+000	9	...........	1489.06
	105	3.53333	-9.50789E-002	1.39220E-006	0.00000E+000	-9.50058E-002	0.00000E+000	9	...........	1488.69
	110	3.7	-9.00783E-002	1.40073E-006	0.00000E+000	-9.00045E-002	0.00000E+000	9	...........	1488.69
	115	3.86667	-8.50779E-002	1.41442E-006	0.00000E+000	-8.50032E-002	0.00000E+000	9	...........	1488.69
	120	4.03333	-8.00785E-002	1.41262E-006	0.00000E+000	-8.00018E-002	0.00000E+000	9	...........	1488.69
	125	4.2	-7.50733E-002	1.43234E-006	0.00000E+000	-7.50005E-002	0.00000E+000	9	...........	1488.69
	130	4.36667	-7.00714E-002	1.44185E-006	0.00000E+000	-6.99992E-002	0.00000E+000	9	...........	1488.69
	135	4.53333	-6.50695E-002	1.45199E-006	0.00000E+000	-6.49978E-002	0.00000E+000	9	...........	1488.69
	140	4.7	-6.00687E-002	1.46304E-006	0.00000E+000	-5.99965E-002	0.00000E+000	9	...........	1488.69
	145	4.86667	-5.50655E-002	1.47037E-006	0.00000E+000	-5.49951E-002	0.00000E+000	9	...........	1488.69
	150	5.03333	-5.00724E-002	1.47898E-006	0.00000E+000	-5.00063E-002	0.00000E+000	9	...........	1488.69
	155	5.2	-4.50720E-002	1.51002E-006	0.00000E+000	-4.50050E-002	0.00000E+000	9	...........	1488.69
	160	5.36667	-4.00707E-002	1.51717E-006	0.00000E+000	-4.00036E-002	0.00000E+000	9	...........	1488.69
	165	5.53333	-3.50690E-002	1.52705E-006	0.00000E+000	-3.50023E-002	0.00000E+000	9	...........	1488.69
	170	5.7	-3.00623E-002	1.55558E-006	0.00000E+000	-3.00010E-002	0.00000E+000	9	...........	1488.69
	175	5.86667	-2.50588E-002	1.57033E-006	0.00000E+000	-2.49996E-002	0.00000E+000	9	...........	1488.69
	180	6.03333	-2.00572E-002	1.58752E-006	0.00000E+000	-1.99983E-002	0.00000E+000	9	...........	1488.69
	185	6.2	-1.50542E-002	1.60270E-006	0.00000E+000	-1.49970E-002	0.00000E+000	9	...........	1488.69
	190	6.36667	-1.00489E-002	1.63207E-006	0.00000E+000	-9.99562E-003	0.00000E+000	9	...........	1488.69
	195	6.53333	-5.04725E-003	1.65148E-006	0.00000E+000	-4.99428E-003	0.00000E+000	9	...........	1489.06
	200	6.7	-5.76455E-005	1.68556E-006	0.00000E+000	-5.44637E-006	0.00000E+000	9	...........	1489.06
	205	6.86667	-5.03300E-003	1.46707E-007	0.00000E+000	-4.99428E-003	0.00000E+000	9	...........	1489.06
	210	7.03333	-1.00358E-002	5.49470E-008	0.00000E+000	-9.99562E-003	0.00000E+000	9	...........	1489.06
	215	7.2	-1.50418E-002	9.02662E-010	0.00000E+000	-1.49970E-002	0.00000E+000	9	...........	1489.06
	220	7.36667	-2.00441E-002	-3.97349E-008	0.00000E+000	-1.99983E-002	0.00000E+000	9	...........	1489.06
	225	7.53333	-2.50468E-002	-8.86537E-008	0.00000E+000	-2.49996E-002	0.00000E+000	9	...........	1488.69
	230	7.7	-3.00502E-002	-1.26520E-007	0.00000E+000	-3.00010E-002	0.00000E+000	9	...........	1488.69
	235	7.86667	-3.50542E-002	-1.49527E-007	0.00000E+000	-3.50023E-002	0.00000E+000	9	...........	1488.69
	240	8.03333	-4.00569E-002	-1.83169E-007	0.00000E+000	-4.00036E-002	0.00000E+000	9	...........	1488.69
	245	8.2	-4.50603E-002	-2.09197E-007	0.00000E+000	-4.50050E-002	0.00000E+000	9	...........	1488.69
[...]
	1041	34.7333	-4.10555E-002	-1.95524E-007	0.00000E+000	-4.10039E-002	0.00000E+000	9	...........	1488.69
	1046	34.9	-4.60605E-002	-2.33991E-007	0.00000E+000	-4.60052E-002	0.00000E+000	9	...........	1488.69
	1051	35.0667	-5.10496E-002	-2.55729E-007	0.00000E+000	-5.09941E-002	0.00000E+000	9	...........	1488.69
	1056	35.2333	-5.60519E-002	-2.84078E-007	0.00000E+000	-5.59954E-002	0.00000E+000	9	...........	1488.69
	1061	35.4	-6.10544E-002	-3.05031E-007	0.00000E+000	-6.09967E-002	0.00000E+000	9	...........	1488.69
	1066	35.5667	-6.60586E-002	-3.22362E-007	0.00000E+000	-6.59981E-002	0.00000E+000	9	...........	1488.69
	1071	35.7333	-7.10617E-002	-3.39658E-007	0.00000E+000	-7.09994E-002	0.00000E+000	9	...........	1488.69
	1076	35.9	-7.60623E-002	-3.60044E-007	0.00000E+000	-7.60008E-002	0.00000E+000	9	...........	1488.69
	1081	36.0667	-8.10653E-002	-3.73351E-007	0.00000E+000	-8.10021E-002	0.00000E+000	9	...........	1488.69
	1086	36.2333	-8.60642E-002	-4.00331E-007	0.00000E+000	-8.60034E-002	0.00000E+000	9	...........	1488.69
	1091	36.4	-9.10665E-002	-4.20783E-007	0.00000E+000	-9.10048E-002	0.00000E+000	9	...........	1488.69
	1096	36.5667	-9.60700E-002	-4.39583E-007	0.00000E+000	-9.60061E-002	0.00000E+000	9	...........	1488.69
	1101	36.7333	-1.01058E-001	-4.57765E-007	0.00000E+000	-1.00995E-001	0.00000E+000	9	...........	1488.69
	1106	36.9	-1.06062E-001	-4.71205E-007	0.00000E+000	-1.05996E-001	0.00000E+000	9	...........	1488.69
	1111	37.0667	-1.11062E-001	-4.95197E-007	0.00000E+000	-1.10998E-001	0.00000E+000	9	...........	1488.69
	1116	37.2333	-1.16064E-001	-5.15733E-007	0.00000E+000	-1.15999E-001	0.00000E+000	9	...........	1488.69
	1121	37.4	-1.21067E-001	-5.37220E-007	0.00000E+000	-1.21000E-001	0.00000E+000	9	...........	1488.69
	1126	37.5667	-1.26067E-001	-5.54500E-007	0.00000E+000	-1.26002E-001	0.00000E+000	9	...........	1488.69
	1131	37.7333	-1.31071E-001	-5.79627E-007	0.00000E+000	-1.31003E-001	0.00000E+000	9	...........	1488.69
	1136	37.9	-1.36072E-001	-5.97959E-007	0.00000E+000	-1.36004E-001	0.00000E+000	9	...........	1488.69
	1141	38.0667	-1.41074E-001	-6.27427E-007	0.00000E+000	-1.41006E-001	0.00000E+000	9	...........	1488.69
	1146	38.2333	-1.46064E-001	-6.50785E-007	0.00000E+000	-1.45994E-001	0.00000E+000	9	...........	1488.69
	1151	38.4	-1.51067E-001	-6.74343E-007	0.00000E+000	-1.50996E-001	0.00000E+000	9	...........	1488.69
	1156	38.5667	-1.56070E-001	-7.12877E-007	0.00000E+000	-1.55997E-001	0.00000E+000	9	...........	1488.69
	1161	38.7333	-1.61071E-001	-7.35099E-007	0.00000E+000	-1.60998E-001	0.00000E+000	9	...........	1488.69
	1166	38.9	-1.66069E-001	-7.73299E-007	0.00000E+000	-1.66000E-001	0.00000E+000	9	...........	1488.69
	1171	39.0667	-1.71072E-001	-8.14905E-007	0.00000E+000	-1.71001E-001	0.00000E+000	9	...........	1488.69
	1176	39.2333	-1.76075E-001	-8.63940E-007	0.00000E+000	-1.76002E-001	0.00000E+000	9	...........	1488.69
	1181	39.4	-1.81079E-001	-8.98100E-007	0.00000E+000	-1.81004E-001	0.00000E+000	9	...........	1488.69
	1186	39.5667	-1.86077E-001	-9.57721E-007	0.00000E+000	-1.86005E-001	0.00000E+000	9	...........	1488.78
	1191	39.7333	-1.91067E-001	-1.00848E-006	0.00000E+000	-1.90994E-001	0.00000E+000	9	...........	1488.78
	1196	39.9	-1.96070E-001	-1.09598E-006	0.00000E+000	-1.95995E-001	0.00000E+000	9	...........	1488.78
	1200	40.0333	-2.00075E-001	-1.17328E-006	0.00000E+000	-1.99996E-001	0.00000E+000	9	...........	1488.78
CURVE4	TABLE
	Pt	T	Vf	Im	Vu	Sig	Ach	IERange	Over	Temp
	#	s	V vs. Ref.	A	V	V	V	#	bits	deg C
	1201	40.0667	-2.00082E-001	-2.85163E-007	0.00000E+000	-1.99996E-001	0.00000E+000	9	...........	1488.78

File: CV_ECSA_#1_#4.DTA
EXPLAIN
TAG	CV
TITLE	LABEL	ECSA	Test Identifier
DATE	LABEL	20.8.2024	Date
TIME	LABEL	8:37:52	Time
NOTES	NOTES	1	Notes...

PSTAT	PSTAT	IFC1010-36105	Potentiostat
VINIT	POTEN	-2.00000E-001	F	A Potential (V)
VLIMIT1	POTEN	0.00000E+000	F	A Potential (V)
VLIMIT2	POTEN	-2.00000E-001	F	A Potential (V)
VFINAL	POTEN	-2.00000E-001	F	A Potential (V)
SCANRATE	QUANT	3.99999E+001	A Real Number
STEPSIZE	QUANT	1.00000E+000	Step Size (mV)
CYCLES	IQUANT	3	Cycles (#)
IMODE	SELECTOR	1	I/E Range Mode
IRANGE	QUANT	3.00000E-001	Max Current (mA)
AREA	QUANT	1.00000E+000	Sample Area (cm^2)
EQDELAY	QUANT	0.00000E+000	Equil. Time (s)
IRCOMP	SELECTOR	0	IRComp
PFCOR	QUANT	5.00000E+001	PF Corr. (ohm)
SAMPLINGMODE	SELECTOR	2	Sampling Mode
EOC	QUANT	-0.1790659	Open Circuit (V)
ELECTRODETYPE	SELECTOR	0	Electrode Type
STRIPPING	TOGGLE	F	Used for Stripping
SEQUENCER	TOGGLE	TRUE	Run as Sequence
PSTATMODEL	IQUANT	64	Pstat Model
PSTATSECTION	LABEL	IFC1010-36105	Pstat Section
PSTATSERIALNO	LABEL	36105	Pstat Serial Number
CTRLMODE	IQUANT	1	Control Mode
ELECTROMETER	IQUANT	0	RE=0 or CS=1
IESTAB	IQUANT	2	I/E Stability
CASPEED	IQUANT	4	Control Amp Speed
CONVENTION	IQUANT	1	Current Convention
ICHRANGE	IQUANT	2	Ich Range
ICHRANGEMODE	TOGGLE	F	Ich Auto Range
ICHOFFSETENABLE	TOGGLE	F	Ich Offset Enable
ICHOFFSET	QUANT	0	Ich Offset (V)
ICHFILTER	IQUANT	3	Ich Filter
VCHRANGE	IQUANT	1	Vch Range
VCHRANGEMODE	TOGGLE	F	Vch Auto Range
VCHOFFSETENABLE	TOGGLE	F	Vch Offset Enable
VCHOFFSET	QUANT	0	Vch Offset (V)
VCHFILTER	IQUANT	3	Vch Filter
IERANGELOWERLIMIT	IQUANT	4	I/E Range Lower Limit
IERANGEMODE	TOGGLE	F	I/E AutoRange
IERANGE	IQUANT	9	I/E Range
ACHSELECT	IQUANT	0	Ach Select
ACHRANGE	IQUANT	2	Ach Range
ACHOFFSETENABLE	TOGGLE	F	Ach Offset Enable
ACHOFFSET	QUANT	0	Ach Offset (V)
ACHFILTER	IQUANT	1	Ach Filter
SENSECABLEID	IQUANT	13	Sense Cable ID
PWRCABLEID	IQUANT	13	Power Cable ID
DCCALDATE	LABEL	10/17/2023	DC Calibration Date
ACCALDATE	LABEL	6/2/2023	AC Calibration Date
FRAMEWORKVERSION	LABEL	7.10.3	Framework Version
INSTRUMENTVERSION	LABEL	4.91	Instrument Version
COMMVERSION	LABEL	3.10	Communications Version
CPUPLDVERSION	LABEL	2.22	CPU PLD Version
CTRLPLDVERSION	LABEL	0.00	CTRL PLD Version
PSTATPLDVERSION	LABEL	0.00	PSTAT PLD Version
CURVE1	TABLE
	Pt	T	Vf	Im	Vu	Sig	Ach	IERange	Over	Temp
	#	s	V vs. Ref.	A	V	V	V	#	bits	deg C
	0	0.025	-2.00081E-001	-2.25718E-007	0.00000E+000	-1.99996E-001	0.00000E+000	9	...........	1488.78
	4	0.125	-1.96090E-001	1.11912E-006	0.00000E+000	-1.95995E-001	0.00000E+000	9	...........	1488.78
	8	0.225	-1.92085E-001	1.22982E-006	0.00000E+000	-1.91994E-001	0.00000E+000	9	...........	1488.78
	12	0.325	-1.88095E-001	1.29636E-006	0.00000E+000	-1.88006E-001	0.00000E+000	9	...........	1488.69
	16	0.425	-1.84094E-001	1.35410E-006	0.00000E+000	-1.84005E-001	0.00000E+000	9	...........	1488.69
	20	0.525	-1.80092E-001	1.39637E-006	0.00000E+000	-1.80004E-001	0.00000E+000	9	...........	1488.69
	24	0.625	-1.76090E-001	1.42355E-006	0.00000E+000	-1.76002E-001	0.00000E+000	9	...........	1488.69
	28	0.725	-1.72089E-001	1.45451E-006	0.00000E+000	-1.72001E-001	0.00000E+000	9	...........	1488.69
	32	0.825	-1.68086E-001	1.46466E-006	0.00000E+000	-1.68000E-001	0.00000E+000	9	...........	1488.69
	36	0.925	-1.64084E-001	1.49110E-006	0.00000E+000	-1.63999E-001	0.00000E+000	9	...........	1488.69
	40	1.025	-1.60082E-001	1.51791E-006	0.00000E+000	-1.59998E-001	0.00000E+000	9	...........	1488.69
	44	1.125	-1.56083E-001	1.52499E-006	0.00000E+000	-1.55997E-001	0.00000E+000	9	...........	1488.69
	48	1.225	-1.52079E-001	1.53679E-006	0.00000E+000	-1.51996E-001	0.00000E+000	9	...........	1488.69
	52	1.325	-1.48081E-001	1.54249E-006	0.00000E+000	-1.47995E-001	0.00000E+000	9	...........	1488.78
	56	1.425	-1.44077E-001	1.55155E-006	0.00000E+000	-1.43994E-001	0.00000E+000	9	...........	1488.78
	60	1.525	-1.40089E-001	1.56855E-006	0.00000E+000	-1.40005E-001	0.00000E+000	9	...........	1488.78
	64	1.625	-1.36088E-001	1.57387E-006	0.00000E+000	-1.36004E-001	0.00000E+000	9	...........	1488.78
	68	1.725	-1.32085E-001	1.58197E-006	0.00000E+000	-1.32003E-001	0.00000E+000	9	...........	1488.78
	72	1.825	-1.28083E-001	1.58291E-006	0.00000E+000	-1.28002E-001	0.00000E+000	9	...........	1488.78
	76	1.925	-1.24083E-001	1.59504E-006	0.00000E+000	-1.24001E-001	0.00000E+000	9	...........	1488.78
	80	2.025	-1.20081E-001	1.60271E-006	0.00000E+000	-1.20000E-001	0.00000E+000	9	...........	1488.78
	84	2.125	-1.16082E-001	1.60749E-006	0.00000E+000	-1.15999E-001	0.00000E+000	9	...........	1488.78
	88	2.225	-1.12079E-001	1.61905E-006	0.00000E+000	-1.11998E-001	0.00000E+000	9	...........	1488.78
	92	2.325	-1.08076E-001	1.63515E-006	0.00000E+000	-1.07997E-001	0.00000E+000	9	...........	1488.69
	96	2.425	-1.04079E-001	1.63673E-006	0.00000E+000	-1.03996E-001	0.00000E+000	9	...........	1488.69
	100	2.525	-1.00075E-001	1.63689E-006	0.00000E+000	-9.99947E-002	0.00000E+000	9	...........	1488.69
	104	2.625	-9.60848E-002	1.64733E-006	0.00000E+000	-9.60061E-002	0.00000E+000	9	...........	1488.69
	108	2.725	-9.20848E-002	1.65446E-006	0.00000E+000	-9.20050E-002	0.00000E+000	9	...........	1488.69
	112	2.825	-8.80819E-002	1.65971E-006	0.00000E+000	-8.80040E-002	0.00000E+000	9	...........	1488.69
	116	2.925	-8.40794E-002	1.67004E-006	0.00000E+000	-8.40029E-002	0.00000E+000	9	...........	1488.69
	120	3.025	-8.00800E-002	1.66822E-006	0.00000E+000	-8.00018E-002	0.00000E+000	9	...........	1488.69
	124	3.125	-7.60783E-002	1.68606E-006	0.00000E+000	-7.60008E-002	0.00000E+000	9	...........	1488.69
	128	3.225	-7.20750E-002	1.69532E-006	0.00000E+000	-7.19997E-002	0.00000E+000	9	...........	1488.69
	132	3.325	-6.80722E-002	1.69919E-006	0.00000E+000	-6.79986E-002	0.00000E+000	9	...........	1488.69
	136	3.425	-6.40697E-002	1.71443E-006	0.00000E+000	-6.39976E-002	0.00000E+000	9	...........	1488.69
	140	3.525	-6.00682E-002	1.72572E-006	0.00000E+000	-5.99965E-002	0.00000E+000	9	...........	1488.69
	144	3.625	-5.60663E-002	1.73540E-006	0.00000E+000	-5.59954E-002	0.00000E+000	9	...........	1488.69
	148	3.725	-5.20647E-002	1.74019E-006	0.00000E+000	-5.19943E-002	0.00000E+000	9	...........	1488.69
	152	3.825	-4.80768E-002	1.74790E-006	0.00000E+000	-4.80058E-002	0.00000E+000	9	...........	1488.69
	156	3.925	-4.40756E-002	1.76522E-006	0.00000E+000	-4.40047E-002	0.00000E+000	9	...........	1488.69
	160	4.025	-4.00734E-002	1.77183E-006	0.00000E+000	-4.00036E-002	0.00000E+000	9	...........	1488.69
	164	4.125	-3.60672E-002	1.78820E-006	0.00000E+000	-3.60026E-002	0.00000E+000	9	...........	1488.69
	168	4.225	-3.20647E-002	1.80804E-006	0.00000E+000	-3.20015E-002	0.00000E+000	9	...........	1488.69
	172	4.325	-2.80620E-002	1.82452E-006	0.00000E+000	-2.80004E-002	0.00000E+000	9	...........	1488.69
	176	4.425	-2.40593E-002	1.83811E-006	0.00000E+000	-2.39994E-002	0.00000E+000	9	...........	1488.69
	180	4.525	-2.00581E-002	1.86594E-006	0.00000E+000	-1.99983E-002	0.00000E+000	9	...........	1488.69
	184	4.625	-1.60569E-002	1.87957E-006	0.00000E+000	-1.59972E-002	0.00000E+000	9	...........	1488.69
	188	4.725	-1.20525E-002	1.89360E-006	0.00000E+000	-1.19962E-002	0.00000E+000	9	...........	1488.69
	192	4.825	-8.05083E-003	1.91173E-006	0.00000E+000	-7.99508E-003	0.00000E+000	9	...........	1488.69
	196	4.925	-4.06010E-003	1.92575E-006	0.00000E+000	-4.00651E-003	0.00000E+000	9	...........	1488.69
[...]
	1041	26.05	-4.10532E-002	-4.34218E-007	0.00000E+000	-4.10039E-002	0.00000E+000	9	...........	1488.69
	1046	26.175	-4.60567E-002	-4.75326E-007	0.00000E+000	-4.60052E-002	0.00000E+000	9	...........	1488.69
	1051	26.3	-5.10463E-002	-4.93675E-007	0.00000E+000	-5.09941E-002	0.00000E+000	9	...........	1488.69
	1056	26.425	-5.60490E-002	-5.20130E-007	0.00000E+000	-5.59954E-002	0.00000E+000	9	...........	1488.69
	1061	26.55	-6.10530E-002	-5.34315E-007	0.00000E+000	-6.09967E-002	0.00000E+000	9	...........	1488.69
	1066	26.675	-6.60562E-002	-5.76135E-007	0.00000E+000	-6.59981E-002	0.00000E+000	9	...........	1488.69
	1071	26.8	-7.10603E-002	-5.95309E-007	0.00000E+000	-7.09994E-002	0.00000E+000	9	...........	1488.69
	1076	26.925	-7.60612E-002	-6.12166E-007	0.00000E+000	-7.60008E-002	0.00000E+000	9	...........	1488.69
	1081	27.05	-8.10637E-002	-6.29290E-007	0.00000E+000	-8.10021E-002	0.00000E+000	9	...........	1488.69
	1086	27.175	-8.60629E-002	-6.61758E-007	0.00000E+000	-8.60034E-002	0.00000E+000	9	...........	1488.69
	1091	27.3	-9.10657E-002	-6.82713E-007	0.00000E+000	-9.10048E-002	0.00000E+000	9	...........	1488.69
	1096	27.425	-9.60684E-002	-7.02532E-007	0.00000E+000	-9.60061E-002	0.00000E+000	9	...........	1488.69
	1101	27.55	-1.01056E-001	-7.23174E-007	0.00000E+000	-1.00995E-001	0.00000E+000	9	...........	1488.69
	1106	27.675	-1.06059E-001	-7.47158E-007	0.00000E+000	-1.05996E-001	0.00000E+000	9	...........	1488.69
	1111	27.8	-1.11059E-001	-7.66531E-007	0.00000E+000	-1.10998E-001	0.00000E+000	9	...........	1488.69
	1116	27.925	-1.16064E-001	-7.91116E-007	0.00000E+000	-1.15999E-001	0.00000E+000	9	...........	1488.69
	1121	28.05	-1.21067E-001	-8.15522E-007	0.00000E+000	-1.21000E-001	0.00000E+000	9	...........	1488.69
	1126	28.175	-1.26067E-001	-8.39973E-007	0.00000E+000	-1.26002E-001	0.00000E+000	9	...........	1488.69
	1131	28.3	-1.31070E-001	-8.67987E-007	0.00000E+000	-1.31003E-001	0.00000E+000	9	...........	1488.69
	1136	28.425	-1.36072E-001	-8.90723E-007	0.00000E+000	-1.36004E-001	0.00000E+000	9	...........	1488.69
	1141	28.55	-1.41073E-001	-9.14550E-007	0.00000E+000	-1.41006E-001	0.00000E+000	9	...........	1488.69
	1146	28.675	-1.46062E-001	-9.45436E-007	0.00000E+000	-1.45994E-001	0.00000E+000	9	...........	1488.69
	1151	28.8	-1.51066E-001	-9.77191E-007	0.00000E+000	-1.50996E-001	0.00000E+000	9	...........	1488.69
	1156	28.925	-1.56068E-001	-1.00912E-006	0.00000E+000	-1.55997E-001	0.00000E+000	9	...........	1488.69
	1161	29.05	-1.61067E-001	-1.04491E-006	0.00000E+000	-1.60998E-001	0.00000E+000	9	...........	1488.69
	1166	29.175	-1.66067E-001	-1.08096E-006	0.00000E+000	-1.66000E-001	0.00000E+000	9	...........	1488.69
	1171	29.3	-1.71069E-001	-1.12503E-006	0.00000E+000	-1.71001E-001	0.00000E+000	9	...........	1488.69
	1176	29.425	-1.76074E-001	-1.17930E-006	0.00000E+000	-1.76002E-001	0.00000E+000	9	...........	1488.69
	1181	29.55	-1.81080E-001	-1.22996E-006	0.00000E+000	-1.81004E-001	0.00000E+000	9	...........	1488.69
	1186	29.675	-1.86080E-001	-1.29298E-006	0.00000E+000	-1.86005E-001	0.00000E+000	9	...........	1488.69
	1191	29.8	-1.91067E-001	-1.35489E-006	0.00000E+000	-1.90994E-001	0.00000E+000	9	...........	1488.69
	1196	29.925	-1.96072E-001	-1.44623E-006	0.00000E+000	-1.95995E-001	0.00000E+000	9	...........	1488.69
	1200	30.025	-2.00072E-001	-1.52030E-006	0.00000E+000	-1.99996E-001	0.00000E+000	9	...........	1488.69
CURVE4	TABLE
	Pt	T	Vf	Im	Vu	Sig	Ach	IERange	Over	Temp
	#	s	V vs. Ref.	A	V	V	V	#	bits	deg C
	1201	30.05	-2.00081E-001	-3.60955E-007	0.00000E+000	-1.99996E-001	0.00000E+000	9	...........	1488.69