Folder: gamry_post_processing_/input (part 13)

File: CV_ECSA_#1_#1.DTA
EXPLAIN
TAG	CV
TITLE	LABEL	ECSA	Test Identifier
DATE	LABEL	20.8.2024	Date
TIME	LABEL	8:34:12	Time
NOTES	NOTES	1	Notes...

PSTAT	PSTAT	IFC1010-36105	Potentiostat
VINIT	POTEN	-2.00000E-001	F	A Potential (V)
VLIMIT1	POTEN	0.00000E+000	F	A Potential (V)
VLIMIT2	POTEN	-2.00000E-001	F	A Potential (V)
VFINAL	POTEN	-2.00000E-001	F	A Potential (V)
SCANRATE	QUANT	1.00000E+001	A Real Number
STEPSIZE	QUANT	1.00000E+000	Step Size (mV)
CYCLES	IQUANT	3	Cycles (#)
IMODE	SELECTOR	1	I/E Range Mode
IRANGE	QUANT	3.00000E-001	Max Current (mA)
AREA	QUANT	1.00000E+000	Sample Area (cm^2)
EQDELAY	QUANT	0.00000E+000	Equil. Time (s)
IRCOMP	SELECTOR	0	IRComp
PFCOR	QUANT	5.00000E+001	PF Corr. (ohm)
SAMPLINGMODE	SELECTOR	2	Sampling Mode
EOC	QUANT	-0.1790659	Open Circuit (V)
ELECTRODETYPE	SELECTOR	0	Electrode Type
STRIPPING	TOGGLE	F	Used for Stripping
SEQUENCER	TOGGLE	TRUE	Run as Sequence
PSTATMODEL	IQUANT	64	Pstat Model
PSTATSECTION	LABEL	IFC1010-36105	Pstat Section
PSTATSERIALNO	LABEL	36105	Pstat Serial Number
CTRLMODE	IQUANT	1	Control Mode
ELECTROMETER	IQUANT	0	RE=0 or CS=1
IESTAB	IQUANT	2	I/E Stability
CASPEED	IQUANT	4	Control Amp Speed
CONVENTION	IQUANT	1	Current Convention
ICHRANGE	IQUANT	2	Ich Range
ICHRANGEMODE	TOGGLE	F	Ich Auto Range
ICHOFFSETENABLE	TOGGLE	F	Ich Offset Enable
ICHOFFSET	QUANT	0	Ich Offset (V)
ICHFILTER	IQUANT	3	Ich Filter
VCHRANGE	IQUANT	1	Vch Range
VCHRANGEMODE	TOGGLE	F	Vch Auto Range
VCHOFFSETENABLE	TOGGLE	F	Vch Offset Enable
VCHOFFSET	QUANT	0	Vch Offset (V)
VCHFILTER	IQUANT	3	Vch Filter
IERANGELOWERLIMIT	IQUANT	4	I/E Range Lower Limit
IERANGEMODE	TOGGLE	F	I/E AutoRange
IERANGE	IQUANT	9	I/E Range
ACHSELECT	IQUANT	0	Ach Select
ACHRANGE	IQUANT	2	Ach Range
ACHOFFSETENABLE	TOGGLE	F	Ach Offset Enable
ACHOFFSET	QUANT	0	Ach Offset (V)
ACHFILTER	IQUANT	1	Ach Filter
SENSECABLEID	IQUANT	13	Sense Cable ID
PWRCABLEID	IQUANT	13	Power Cable ID
DCCALDATE	LABEL	10/17/2023	DC Calibration Date
ACCALDATE	LABEL	6/2/2023	AC Calibration Date
FRAMEWORKVERSION	LABEL	7.10.3	Framework Version
INSTRUMENTVERSION	LABEL	4.91	Instrument Version
COMMVERSION	LABEL	3.10	Communications Version
CPUPLDVERSION	LABEL	2.22	CPU PLD Version
CTRLPLDVERSION	LABEL	0.00	CTRL PLD Version
PSTATPLDVERSION	LABEL	0.00	PSTAT PLD Version
CURVE1	TABLE
	Pt	T	Vf	Im	Vu	Sig	Ach	IERange	Over	Temp
	#	s	V vs. Ref.	A	V	V	V	#	bits	deg C
	0	0.1	-2.00074E-001	-1.32364E-007	0.00000E+000	-1.99996E-001	0.00000E+000	9	...........	1488.78
	4	0.5	-1.96076E-001	2.97506E-007	0.00000E+000	-1.95995E-001	0.00000E+000	9	...........	1488.78
	8	0.9	-1.92073E-001	3.74316E-007	0.00000E+000	-1.91994E-001	0.00000E+000	9	...........	1488.78
	12	1.3	-1.88084E-001	4.29904E-007	0.00000E+000	-1.88006E-001	0.00000E+000	9	...........	1489.15
	16	1.7	-1.84081E-001	4.81793E-007	0.00000E+000	-1.84005E-001	0.00000E+000	9	...........	1489.15
	20	2.1	-1.80082E-001	5.25774E-007	0.00000E+000	-1.80004E-001	0.00000E+000	9	...........	1489.15
	24	2.5	-1.76081E-001	5.57853E-007	0.00000E+000	-1.76002E-001	0.00000E+000	9	...........	1489.15
	28	2.9	-1.72079E-001	5.90594E-007	0.00000E+000	-1.72001E-001	0.00000E+000	9	...........	1489.15
	32	3.3	-1.68076E-001	6.28941E-007	0.00000E+000	-1.68000E-001	0.00000E+000	9	...........	1489.15
	36	3.7	-1.64075E-001	6.52439E-007	0.00000E+000	-1.63999E-001	0.00000E+000	9	...........	1489.15
	40	4.1	-1.60074E-001	6.80469E-007	0.00000E+000	-1.59998E-001	0.00000E+000	9	...........	1488.69
	44	4.5	-1.56074E-001	7.10290E-007	0.00000E+000	-1.55997E-001	0.00000E+000	9	...........	1488.69
	48	4.9	-1.52071E-001	7.30239E-007	0.00000E+000	-1.51996E-001	0.00000E+000	9	...........	1488.69
	52	5.3	-1.48072E-001	7.59927E-007	0.00000E+000	-1.47995E-001	0.00000E+000	9	...........	1489.15
	56	5.7	-1.44069E-001	7.76378E-007	0.00000E+000	-1.43994E-001	0.00000E+000	9	...........	1489.15
	60	6.1	-1.40081E-001	7.98380E-007	0.00000E+000	-1.40005E-001	0.00000E+000	9	...........	1488.88
	64	6.5	-1.36078E-001	8.14186E-007	0.00000E+000	-1.36004E-001	0.00000E+000	9	...........	1488.88
	68	6.9	-1.32075E-001	8.34001E-007	0.00000E+000	-1.32003E-001	0.00000E+000	9	...........	1488.88
	72	7.3	-1.28075E-001	8.50314E-007	0.00000E+000	-1.28002E-001	0.00000E+000	9	...........	1489.15
	76	7.7	-1.24074E-001	8.54779E-007	0.00000E+000	-1.24001E-001	0.00000E+000	9	...........	1489.15
	80	8.1	-1.20071E-001	8.72982E-007	0.00000E+000	-1.20000E-001	0.00000E+000	9	...........	1488.97
	84	8.5	-1.16071E-001	8.89995E-007	0.00000E+000	-1.15999E-001	0.00000E+000	9	...........	1488.97
	88	8.9	-1.12070E-001	9.03577E-007	0.00000E+000	-1.11998E-001	0.00000E+000	9	...........	1488.97
	92	9.3	-1.08066E-001	9.14655E-007	0.00000E+000	-1.07997E-001	0.00000E+000	9	...........	1489.15
	96	9.7	-1.04069E-001	9.32185E-007	0.00000E+000	-1.03996E-001	0.00000E+000	9	...........	1489.15
	100	10.1	-1.00065E-001	9.44860E-007	0.00000E+000	-9.99947E-002	0.00000E+000	9	...........	1489.06
	104	10.5	-9.60754E-002	9.50416E-007	0.00000E+000	-9.60061E-002	0.00000E+000	9	...........	1489.06
	108	10.9	-9.20746E-002	9.70004E-007	0.00000E+000	-9.20050E-002	0.00000E+000	9	...........	1489.06
	112	11.3	-8.80720E-002	9.80587E-007	0.00000E+000	-8.80040E-002	0.00000E+000	9	...........	1489.15
	116	11.7	-8.40713E-002	9.92851E-007	0.00000E+000	-8.40029E-002	0.00000E+000	9	...........	1489.15
	120	12.1	-8.00741E-002	1.00502E-006	0.00000E+000	-8.00018E-002	0.00000E+000	9	...........	1489.15
	124	12.5	-7.60696E-002	1.01524E-006	0.00000E+000	-7.60008E-002	0.00000E+000	9	...........	1489.15
	128	12.9	-7.20698E-002	1.01814E-006	0.00000E+000	-7.19997E-002	0.00000E+000	9	...........	1489.15
	132	13.3	-6.80659E-002	1.03085E-006	0.00000E+000	-6.79986E-002	0.00000E+000	9	...........	1489.15
	136	13.7	-6.40627E-002	1.04814E-006	0.00000E+000	-6.39976E-002	0.00000E+000	9	...........	1489.15
	140	14.1	-6.00619E-002	1.06391E-006	0.00000E+000	-5.99965E-002	0.00000E+000	9	...........	1489.15
	144	14.5	-5.60573E-002	1.07447E-006	0.00000E+000	-5.59954E-002	0.00000E+000	9	...........	1489.15
	148	14.9	-5.20577E-002	1.09438E-006	0.00000E+000	-5.19943E-002	0.00000E+000	9	...........	1489.15
	152	15.3	-4.80696E-002	1.10792E-006	0.00000E+000	-4.80058E-002	0.00000E+000	9	...........	1489.24
	156	15.7	-4.40656E-002	1.12536E-006	0.00000E+000	-4.40047E-002	0.00000E+000	9	...........	1489.24
	160	16.1	-4.00632E-002	1.12383E-006	0.00000E+000	-4.00036E-002	0.00000E+000	9	...........	1489.15
	164	16.5	-3.60582E-002	1.14116E-006	0.00000E+000	-3.60026E-002	0.00000E+000	9	...........	1489.15
	168	16.9	-3.20571E-002	1.14935E-006	0.00000E+000	-3.20015E-002	0.00000E+000	9	...........	1489.15
	172	17.3	-2.80555E-002	1.16774E-006	0.00000E+000	-2.80004E-002	0.00000E+000	9	...........	1489.15
	176	17.7	-2.40515E-002	1.17983E-006	0.00000E+000	-2.39994E-002	0.00000E+000	9	...........	1489.15
	180	18.1	-2.00506E-002	1.19091E-006	0.00000E+000	-1.99983E-002	0.00000E+000	9	...........	1489.15
	184	18.5	-1.60490E-002	1.20650E-006	0.00000E+000	-1.59972E-002	0.00000E+000	9	...........	1489.15
	188	18.9	-1.20452E-002	1.21595E-006	0.00000E+000	-1.19962E-002	0.00000E+000	9	...........	1489.15
	192	19.3	-8.04358E-003	1.23580E-006	0.00000E+000	-7.99508E-003	0.00000E+000	9	...........	1489.24
	196	19.7	-4.03882E-003	1.25322E-006	0.00000E+000	-3.99401E-003	0.00000E+000	9	...........	1489.24
	200	20.1	-4.96072E-005	1.25573E-006	0.00000E+000	-5.44637E-006	0.00000E+000	9	...........	1489.15
[...]
	1069	107	-6.90608E-002	2.13281E-007	0.00000E+000	-6.89989E-002	0.00000E+000	9	...........	1489.12
	1073	107.4	-7.30646E-002	1.90457E-007	0.00000E+000	-7.30000E-002	0.00000E+000	9	...........	1489.06
	1077	107.8	-7.70661E-002	1.73210E-007	0.00000E+000	-7.70010E-002	0.00000E+000	9	...........	1489.06
	1081	108.2	-8.10676E-002	1.66192E-007	0.00000E+000	-8.10021E-002	0.00000E+000	9	...........	1489.24
	1085	108.6	-8.50693E-002	1.52115E-007	0.00000E+000	-8.50032E-002	0.00000E+000	9	...........	1489.24
	1089	109	-8.90723E-002	1.40798E-007	0.00000E+000	-8.90042E-002	0.00000E+000	9	...........	1489.18
	1093	109.4	-9.30713E-002	1.32928E-007	0.00000E+000	-9.30053E-002	0.00000E+000	9	...........	1489.15
	1097	109.8	-9.70630E-002	1.25153E-007	0.00000E+000	-9.69939E-002	0.00000E+000	9	...........	1489.15
	1101	110.2	-1.01062E-001	1.06989E-007	0.00000E+000	-1.00995E-001	0.00000E+000	9	...........	1488.78
	1105	110.6	-1.05064E-001	9.50203E-008	0.00000E+000	-1.04996E-001	0.00000E+000	9	...........	1488.78
	1109	111	-1.09067E-001	8.05158E-008	0.00000E+000	-1.08997E-001	0.00000E+000	9	...........	1489.10
	1113	111.4	-1.13066E-001	7.16451E-008	0.00000E+000	-1.12998E-001	0.00000E+000	9	...........	1489.24
	1117	111.8	-1.17069E-001	5.91983E-008	0.00000E+000	-1.16999E-001	0.00000E+000	9	...........	1489.24
	1121	112.2	-1.21070E-001	4.12623E-008	0.00000E+000	-1.21000E-001	0.00000E+000	9	...........	1488.78
	1125	112.6	-1.25071E-001	3.94548E-008	0.00000E+000	-1.25001E-001	0.00000E+000	9	...........	1488.78
	1129	113	-1.29074E-001	2.52784E-008	0.00000E+000	-1.29002E-001	0.00000E+000	9	...........	1489.10
	1133	113.4	-1.33074E-001	1.37660E-008	0.00000E+000	-1.33004E-001	0.00000E+000	9	...........	1489.24
	1137	113.8	-1.37077E-001	-2.43484E-009	0.00000E+000	-1.37005E-001	0.00000E+000	9	...........	1489.24
	1141	114.2	-1.41077E-001	-1.18061E-008	0.00000E+000	-1.41006E-001	0.00000E+000	9	...........	1488.78
	1145	114.6	-1.45066E-001	-2.32907E-008	0.00000E+000	-1.44994E-001	0.00000E+000	9	...........	1488.78
	1149	115	-1.49070E-001	-4.67271E-008	0.00000E+000	-1.48995E-001	0.00000E+000	9	...........	1489.10
	1153	115.4	-1.53068E-001	-5.80894E-008	0.00000E+000	-1.52996E-001	0.00000E+000	9	...........	1489.24
	1157	115.8	-1.57070E-001	-6.97798E-008	0.00000E+000	-1.56997E-001	0.00000E+000	9	...........	1489.24
	1161	116.2	-1.61072E-001	-9.20927E-008	0.00000E+000	-1.60998E-001	0.00000E+000	9	...........	1488.78
	1165	116.6	-1.65072E-001	-1.08516E-007	0.00000E+000	-1.65000E-001	0.00000E+000	9	...........	1488.78
	1169	117	-1.69073E-001	-1.33476E-007	0.00000E+000	-1.69001E-001	0.00000E+000	9	...........	1489.11
	1173	117.4	-1.73075E-001	-1.58453E-007	0.00000E+000	-1.73002E-001	0.00000E+000	9	...........	1489.24
	1177	117.8	-1.77077E-001	-1.86839E-007	0.00000E+000	-1.77003E-001	0.00000E+000	9	...........	1489.24
	1181	118.2	-1.81082E-001	-2.17061E-007	0.00000E+000	-1.81004E-001	0.00000E+000	9	...........	1488.78
	1185	118.6	-1.85080E-001	-2.54696E-007	0.00000E+000	-1.85005E-001	0.00000E+000	9	...........	1488.78
	1189	119	-1.89081E-001	-2.99022E-007	0.00000E+000	-1.89006E-001	0.00000E+000	9	...........	1489.11
	1193	119.4	-1.93071E-001	-3.53369E-007	0.00000E+000	-1.92995E-001	0.00000E+000	9	...........	1489.24
	1197	119.8	-1.97072E-001	-4.06693E-007	0.00000E+000	-1.96996E-001	0.00000E+000	9	...........	1489.24
	1200	120.1	-2.00075E-001	-4.56525E-007	0.00000E+000	-1.99996E-001	0.00000E+000	9	...........	1488.69
CURVE4	TABLE
	Pt	T	Vf	Im	Vu	Sig	Ach	IERange	Over	Temp
	#	s	V vs. Ref.	A	V	V	V	#	bits	deg C
	1201	120.2	-2.00078E-001	-1.38176E-007	0.00000E+000	-1.99996E-001	0.00000E+000	9	...........	1488.69

File: CV_ECSA_#1_#2.DTA
EXPLAIN
TAG	CV
TITLE	LABEL	ECSA	Test Identifier
DATE	LABEL	17.7.2024	Date
TIME	LABEL	10:17:44	Time
NOTES	NOTES	1	Notes...

PSTAT	PSTAT	IFC1010-34090	Potentiostat
VINIT	POTEN	1.00000E-001	F	A Potential (V)
VLIMIT1	POTEN	2.00000E-001	F	A Potential (V)
VLIMIT2	POTEN	1.00000E-001	F	A Potential (V)
VFINAL	POTEN	1.00000E-001	F	A Potential (V)
SCANRATE	QUANT	2.00000E+001	A Real Number
STEPSIZE	QUANT	1.00000E+000	Step Size (mV)
CYCLES	IQUANT	3	Cycles (#)
IMODE	SELECTOR	1	I/E Range Mode
IRANGE	QUANT	3.00000E-001	Max Current (mA)
AREA	QUANT	1.00000E+000	Sample Area (cm^2)
EQDELAY	QUANT	0.00000E+000	Equil. Time (s)
IRCOMP	SELECTOR	0	IRComp
PFCOR	QUANT	5.00000E+001	PF Corr. (ohm)
SAMPLINGMODE	SELECTOR	2	Sampling Mode
EOC	QUANT	0.7205974	Open Circuit (V)
ELECTRODETYPE	SELECTOR	0	Electrode Type
STRIPPING	TOGGLE	F	Used for Stripping
SEQUENCER	TOGGLE	TRUE	Run as Sequence
PSTATMODEL	IQUANT	64	Pstat Model
PSTATSECTION	LABEL	IFC1010-34090	Pstat Section
PSTATSERIALNO	LABEL	34090	Pstat Serial Number
CTRLMODE	IQUANT	1	Control Mode
ELECTROMETER	IQUANT	0	RE=0 or CS=1
IESTAB	IQUANT	2	I/E Stability
CASPEED	IQUANT	4	Control Amp Speed
CONVENTION	IQUANT	1	Current Convention
ICHRANGE	IQUANT	2	Ich Range
ICHRANGEMODE	TOGGLE	F	Ich Auto Range
ICHOFFSETENABLE	TOGGLE	F	Ich Offset Enable
ICHOFFSET	QUANT	0	Ich Offset (V)
ICHFILTER	IQUANT	3	Ich Filter
VCHRANGE	IQUANT	1	Vch Range
VCHRANGEMODE	TOGGLE	F	Vch Auto Range
VCHOFFSETENABLE	TOGGLE	F	Vch Offset Enable
VCHOFFSET	QUANT	0	Vch Offset (V)
VCHFILTER	IQUANT	3	Vch Filter
IERANGELOWERLIMIT	IQUANT	4	I/E Range Lower Limit
IERANGEMODE	TOGGLE	F	I/E AutoRange
IERANGE	IQUANT	9	I/E Range
ACHSELECT	IQUANT	0	Ach Select
ACHRANGE	IQUANT	2	Ach Range
ACHOFFSETENABLE	TOGGLE	F	Ach Offset Enable
ACHOFFSET	QUANT	0	Ach Offset (V)
ACHFILTER	IQUANT	1	Ach Filter
SENSECABLEID	IQUANT	13	Sense Cable ID
PWRCABLEID	IQUANT	13	Power Cable ID
DCCALDATE	LABEL	1/30/2024	DC Calibration Date
ACCALDATE	LABEL	1/8/2024	AC Calibration Date
FRAMEWORKVERSION	LABEL	7.10.3	Framework Version
INSTRUMENTVERSION	LABEL	4.91	Instrument Version
COMMVERSION	LABEL	3.10	Communications Version
CPUPLDVERSION	LABEL	2.22	CPU PLD Version
CTRLPLDVERSION	LABEL	0.00	CTRL PLD Version
PSTATPLDVERSION	LABEL	0.00	PSTAT PLD Version
CURVE1	TABLE
	Pt	T	Vf	Im	Vu	Sig	Ach	IERange	Over	Temp
	#	s	V vs. Ref.	A	V	V	V	#	bits	deg C
	0	0.05	1.00266E-001	-6.24136E-006	0.00000E+000	9.99950E-002	0.00000E+000	9	...........	1466.71
	2	0.15	1.02264E-001	-5.16344E-006	0.00000E+000	1.01995E-001	0.00000E+000	9	...........	1466.71
	4	0.25	1.04264E-001	-5.11386E-006	0.00000E+000	1.03995E-001	0.00000E+000	9	...........	1466.71
	6	0.35	1.06265E-001	-5.07897E-006	0.00000E+000	1.05994E-001	0.00000E+000	9	...........	1466.71
	8	0.45	1.08265E-001	-5.04754E-006	0.00000E+000	1.07994E-001	0.00000E+000	9	...........	1466.71
	10	0.55	1.10267E-001	-5.01325E-006	0.00000E+000	1.09994E-001	0.00000E+000	9	...........	1466.71
	12	0.65	1.12264E-001	-4.99370E-006	0.00000E+000	1.11994E-001	0.00000E+000	9	...........	1466.71
	14	0.75	1.14280E-001	-4.97405E-006	0.00000E+000	1.14006E-001	0.00000E+000	9	...........	1466.71
	16	0.85	1.16279E-001	-4.95499E-006	0.00000E+000	1.16006E-001	0.00000E+000	9	...........	1466.71
	18	0.95	1.18281E-001	-4.93890E-006	0.00000E+000	1.18006E-001	0.00000E+000	9	...........	1466.71
	20	1.05	1.20282E-001	-4.92186E-006	0.00000E+000	1.20005E-001	0.00000E+000	9	...........	1466.71
	22	1.15	1.22282E-001	-4.90297E-006	0.00000E+000	1.22005E-001	0.00000E+000	9	...........	1466.71
	24	1.25	1.24285E-001	-4.88956E-006	0.00000E+000	1.24005E-001	0.00000E+000	9	...........	1466.71
	26	1.35	1.26284E-001	-4.87440E-006	0.00000E+000	1.26005E-001	0.00000E+000	9	...........	1466.71
	28	1.45	1.28286E-001	-4.86411E-006	0.00000E+000	1.28005E-001	0.00000E+000	9	...........	1466.85
	30	1.55	1.30286E-001	-4.84910E-006	0.00000E+000	1.30004E-001	0.00000E+000	9	...........	1467.16
	32	1.65	1.32287E-001	-4.83408E-006	0.00000E+000	1.32004E-001	0.00000E+000	9	...........	1467.16
	34	1.75	1.34287E-001	-4.82104E-006	0.00000E+000	1.34004E-001	0.00000E+000	9	...........	1467.16
	36	1.85	1.36287E-001	-4.80757E-006	0.00000E+000	1.36004E-001	0.00000E+000	9	...........	1467.16
	38	1.95	1.38289E-001	-4.79620E-006	0.00000E+000	1.38004E-001	0.00000E+000	9	...........	1467.16
	40	2.05	1.40289E-001	-4.78045E-006	0.00000E+000	1.40003E-001	0.00000E+000	9	...........	1467.16
	42	2.15	1.42288E-001	-4.76618E-006	0.00000E+000	1.42003E-001	0.00000E+000	9	...........	1467.16
	44	2.25	1.44288E-001	-4.75752E-006	0.00000E+000	1.44003E-001	0.00000E+000	9	...........	1467.16
	46	2.35	1.46292E-001	-4.73951E-006	0.00000E+000	1.46003E-001	0.00000E+000	9	...........	1467.16
	48	2.45	1.48291E-001	-4.72858E-006	0.00000E+000	1.48003E-001	0.00000E+000	9	...........	1467.16
	50	2.55	1.50287E-001	-4.71731E-006	0.00000E+000	1.50002E-001	0.00000E+000	9	...........	1467.16
	52	2.65	1.52287E-001	-4.70241E-006	0.00000E+000	1.52002E-001	0.00000E+000	9	...........	1467.16
	54	2.75	1.54289E-001	-4.68820E-006	0.00000E+000	1.54002E-001	0.00000E+000	9	...........	1467.16
	56	2.85	1.56290E-001	-4.67415E-006	0.00000E+000	1.56002E-001	0.00000E+000	9	...........	1467.16
	58	2.95	1.58290E-001	-4.66098E-006	0.00000E+000	1.58002E-001	0.00000E+000	9	...........	1467.16
	60	3.05	1.60293E-001	-4.64948E-006	0.00000E+000	1.60001E-001	0.00000E+000	9	...........	1467.16
	62	3.15	1.62291E-001	-4.63430E-006	0.00000E+000	1.62001E-001	0.00000E+000	9	...........	1467.16
	64	3.25	1.64293E-001	-4.62138E-006	0.00000E+000	1.64001E-001	0.00000E+000	9	...........	1467.16
	66	3.35	1.66293E-001	-4.60748E-006	0.00000E+000	1.66001E-001	0.00000E+000	9	...........	1467.16
	68	3.45	1.68292E-001	-4.59670E-006	0.00000E+000	1.68001E-001	0.00000E+000	9	...........	1467.04
	70	3.55	1.70296E-001	-4.58448E-006	0.00000E+000	1.70000E-001	0.00000E+000	9	...........	1466.80
	72	3.65	1.72297E-001	-4.57493E-006	0.00000E+000	1.72000E-001	0.00000E+000	9	...........	1466.80
	74	3.75	1.74299E-001	-4.55847E-006	0.00000E+000	1.74000E-001	0.00000E+000	9	...........	1466.80
	76	3.85	1.76296E-001	-4.54671E-006	0.00000E+000	1.76000E-001	0.00000E+000	9	...........	1466.80
	78	3.95	1.78299E-001	-4.53567E-006	0.00000E+000	1.78000E-001	0.00000E+000	9	...........	1466.80
	80	4.05	1.80300E-001	-4.52367E-006	0.00000E+000	1.79999E-001	0.00000E+000	9	...........	1466.80
	82	4.15	1.82301E-001	-4.50769E-006	0.00000E+000	1.81999E-001	0.00000E+000	9	...........	1466.80
	84	4.25	1.84300E-001	-4.49938E-006	0.00000E+000	1.83999E-001	0.00000E+000	9	...........	1466.80
	86	4.35	1.86301E-001	-4.48187E-006	0.00000E+000	1.85999E-001	0.00000E+000	9	...........	1466.80
	88	4.45	1.88303E-001	-4.47214E-006	0.00000E+000	1.87999E-001	0.00000E+000	9	...........	1466.77
	90	4.55	1.90302E-001	-4.45792E-006	0.00000E+000	1.89998E-001	0.00000E+000	9	...........	1466.71
	92	4.65	1.92305E-001	-4.44811E-006	0.00000E+000	1.91998E-001	0.00000E+000	9	...........	1466.71
	94	4.75	1.94300E-001	-4.43541E-006	0.00000E+000	1.93998E-001	0.00000E+000	9	...........	1466.71
	96	4.85	1.96303E-001	-4.41950E-006	0.00000E+000	1.95998E-001	0.00000E+000	9	...........	1466.71
	98	4.95	1.98305E-001	-4.40371E-006	0.00000E+000	1.97998E-001	0.00000E+000	9	...........	1466.71
	100	5.05	2.00308E-001	-4.39027E-006	0.00000E+000	1.99997E-001	0.00000E+000	9	...........	1466.71
[...]
	533	26.7	1.67301E-001	-6.76725E-006	0.00000E+000	1.67001E-001	0.00000E+000	9	...........	1467.16
	535	26.8	1.65300E-001	-6.79286E-006	0.00000E+000	1.65001E-001	0.00000E+000	9	...........	1467.16
	537	26.9	1.63300E-001	-6.81421E-006	0.00000E+000	1.63001E-001	0.00000E+000	9	...........	1467.16
	539	27	1.61299E-001	-6.83823E-006	0.00000E+000	1.61001E-001	0.00000E+000	9	...........	1467.16
	541	27.1	1.59299E-001	-6.85060E-006	0.00000E+000	1.59001E-001	0.00000E+000	9	...........	1467.16
	543	27.2	1.57296E-001	-6.87209E-006	0.00000E+000	1.57002E-001	0.00000E+000	9	...........	1467.16
	545	27.3	1.55297E-001	-6.88962E-006	0.00000E+000	1.55002E-001	0.00000E+000	9	...........	1467.16
	547	27.4	1.53294E-001	-6.91021E-006	0.00000E+000	1.53002E-001	0.00000E+000	9	...........	1467.16
	549	27.5	1.51297E-001	-6.92852E-006	0.00000E+000	1.51002E-001	0.00000E+000	9	...........	1466.71
	551	27.6	1.49299E-001	-6.94135E-006	0.00000E+000	1.49003E-001	0.00000E+000	9	...........	1466.71
	553	27.7	1.47299E-001	-6.96200E-006	0.00000E+000	1.47003E-001	0.00000E+000	9	...........	1466.71
	555	27.8	1.45297E-001	-6.97915E-006	0.00000E+000	1.45003E-001	0.00000E+000	9	...........	1466.71
	557	27.9	1.43294E-001	-6.99879E-006	0.00000E+000	1.43003E-001	0.00000E+000	9	...........	1466.71
	559	28	1.41298E-001	-7.01593E-006	0.00000E+000	1.41003E-001	0.00000E+000	9	...........	1466.71
	561	28.1	1.39296E-001	-7.03512E-006	0.00000E+000	1.39004E-001	0.00000E+000	9	...........	1466.71
	563	28.2	1.37297E-001	-7.05500E-006	0.00000E+000	1.37004E-001	0.00000E+000	9	...........	1466.71
	565	28.3	1.35297E-001	-7.07338E-006	0.00000E+000	1.35004E-001	0.00000E+000	9	...........	1466.71
	567	28.4	1.33296E-001	-7.08765E-006	0.00000E+000	1.33004E-001	0.00000E+000	9	...........	1466.71
	569	28.5	1.31295E-001	-7.10761E-006	0.00000E+000	1.31004E-001	0.00000E+000	9	...........	1467.16
	571	28.6	1.29294E-001	-7.12506E-006	0.00000E+000	1.29005E-001	0.00000E+000	9	...........	1467.16
	573	28.7	1.27293E-001	-7.14885E-006	0.00000E+000	1.27005E-001	0.00000E+000	9	...........	1467.16
	575	28.8	1.25291E-001	-7.16961E-006	0.00000E+000	1.25005E-001	0.00000E+000	9	...........	1467.16
	577	28.9	1.23293E-001	-7.18584E-006	0.00000E+000	1.23005E-001	0.00000E+000	9	...........	1467.16
	579	29	1.21290E-001	-7.21309E-006	0.00000E+000	1.21005E-001	0.00000E+000	9	...........	1467.16
	581	29.1	1.19289E-001	-7.23252E-006	0.00000E+000	1.19006E-001	0.00000E+000	9	...........	1467.16
	583	29.2	1.17288E-001	-7.25517E-006	0.00000E+000	1.17006E-001	0.00000E+000	9	...........	1467.16
	585	29.3	1.15288E-001	-7.27954E-006	0.00000E+000	1.15006E-001	0.00000E+000	9	...........	1467.16
	587	29.4	1.13287E-001	-7.30317E-006	0.00000E+000	1.13006E-001	0.00000E+000	9	...........	1467.16
	589	29.5	1.11273E-001	-7.32878E-006	0.00000E+000	1.10994E-001	0.00000E+000	9	...........	1466.80
	591	29.6	1.09275E-001	-7.35146E-006	0.00000E+000	1.08994E-001	0.00000E+000	9	...........	1466.80
	593	29.7	1.07272E-001	-7.37727E-006	0.00000E+000	1.06994E-001	0.00000E+000	9	...........	1466.80
	595	29.8	1.05270E-001	-7.40582E-006	0.00000E+000	1.04994E-001	0.00000E+000	9	...........	1466.80
	597	29.9	1.03272E-001	-7.43074E-006	0.00000E+000	1.02995E-001	0.00000E+000	9	...........	1466.80
	599	30	1.01271E-001	-7.45934E-006	0.00000E+000	1.00995E-001	0.00000E+000	9	...........	1466.80
	600	30.05	1.00272E-001	-7.44959E-006	0.00000E+000	9.99950E-002	0.00000E+000	9	...........	1466.80
CURVE4	TABLE
	Pt	T	Vf	Im	Vu	Sig	Ach	IERange	Over	Temp
	#	s	V vs. Ref.	A	V	V	V	#	bits	deg C
	601	30.1	1.00268E-001	-6.52692E-006	0.00000E+000	9.99950E-002	0.00000E+000	9	...........	1466.80