Folder: gamry_post_processing_/input (part 17)

File: CV_ECSA_#1_#9.DTA
EXPLAIN
TAG	CV
TITLE	LABEL	ECSA	Test Identifier
DATE	LABEL	20.8.2024	Date
TIME	LABEL	8:39:39	Time
NOTES	NOTES	1	Notes...

PSTAT	PSTAT	IFC1010-36105	Potentiostat
VINIT	POTEN	-2.00000E-001	F	A Potential (V)
VLIMIT1	POTEN	0.00000E+000	F	A Potential (V)
VLIMIT2	POTEN	-2.00000E-001	F	A Potential (V)
VFINAL	POTEN	-2.00000E-001	F	A Potential (V)
SCANRATE	QUANT	8.99998E+001	A Real Number
STEPSIZE	QUANT	1.00000E+000	Step Size (mV)
CYCLES	IQUANT	3	Cycles (#)
IMODE	SELECTOR	1	I/E Range Mode
IRANGE	QUANT	3.00000E-001	Max Current (mA)
AREA	QUANT	1.00000E+000	Sample Area (cm^2)
EQDELAY	QUANT	0.00000E+000	Equil. Time (s)
IRCOMP	SELECTOR	0	IRComp
PFCOR	QUANT	5.00000E+001	PF Corr. (ohm)
SAMPLINGMODE	SELECTOR	2	Sampling Mode
EOC	QUANT	-0.1790659	Open Circuit (V)
ELECTRODETYPE	SELECTOR	0	Electrode Type
STRIPPING	TOGGLE	F	Used for Stripping
SEQUENCER	TOGGLE	TRUE	Run as Sequence
PSTATMODEL	IQUANT	64	Pstat Model
PSTATSECTION	LABEL	IFC1010-36105	Pstat Section
PSTATSERIALNO	LABEL	36105	Pstat Serial Number
CTRLMODE	IQUANT	1	Control Mode
ELECTROMETER	IQUANT	0	RE=0 or CS=1
IESTAB	IQUANT	2	I/E Stability
CASPEED	IQUANT	4	Control Amp Speed
CONVENTION	IQUANT	1	Current Convention
ICHRANGE	IQUANT	2	Ich Range
ICHRANGEMODE	TOGGLE	F	Ich Auto Range
ICHOFFSETENABLE	TOGGLE	F	Ich Offset Enable
ICHOFFSET	QUANT	0	Ich Offset (V)
ICHFILTER	IQUANT	3	Ich Filter
VCHRANGE	IQUANT	1	Vch Range
VCHRANGEMODE	TOGGLE	F	Vch Auto Range
VCHOFFSETENABLE	TOGGLE	F	Vch Offset Enable
VCHOFFSET	QUANT	0	Vch Offset (V)
VCHFILTER	IQUANT	3	Vch Filter
IERANGELOWERLIMIT	IQUANT	4	I/E Range Lower Limit
IERANGEMODE	TOGGLE	F	I/E AutoRange
IERANGE	IQUANT	9	I/E Range
ACHSELECT	IQUANT	0	Ach Select
ACHRANGE	IQUANT	2	Ach Range
ACHOFFSETENABLE	TOGGLE	F	Ach Offset Enable
ACHOFFSET	QUANT	0	Ach Offset (V)
ACHFILTER	IQUANT	1	Ach Filter
SENSECABLEID	IQUANT	13	Sense Cable ID
PWRCABLEID	IQUANT	13	Power Cable ID
DCCALDATE	LABEL	10/17/2023	DC Calibration Date
ACCALDATE	LABEL	6/2/2023	AC Calibration Date
FRAMEWORKVERSION	LABEL	7.10.3	Framework Version
INSTRUMENTVERSION	LABEL	4.91	Instrument Version
COMMVERSION	LABEL	3.10	Communications Version
CPUPLDVERSION	LABEL	2.22	CPU PLD Version
CTRLPLDVERSION	LABEL	0.00	CTRL PLD Version
PSTATPLDVERSION	LABEL	0.00	PSTAT PLD Version
CURVE1	TABLE
	Pt	T	Vf	Im	Vu	Sig	Ach	IERange	Over	Temp
	#	s	V vs. Ref.	A	V	V	V	#	bits	deg C
	0	0.011117	-2.00080E-001	-4.14628E-007	0.00000E+000	-1.99996E-001	0.00000E+000	9	...........	1488.69
	5	0.0667	-1.95099E-001	2.44164E-006	0.00000E+000	-1.94995E-001	0.00000E+000	9	...........	1488.69
	10	0.122283	-1.90093E-001	2.61831E-006	0.00000E+000	-1.89994E-001	0.00000E+000	9	...........	1488.69
	15	0.177867	-1.85093E-001	2.71889E-006	0.00000E+000	-1.84992E-001	0.00000E+000	9	...........	1488.69
	20	0.23345	-1.80089E-001	2.76228E-006	0.00000E+000	-1.79991E-001	0.00000E+000	9	...........	1488.69
	25	0.289033	-1.75089E-001	2.80577E-006	0.00000E+000	-1.74990E-001	0.00000E+000	9	...........	1488.69
	30	0.344617	-1.70087E-001	2.84304E-006	0.00000E+000	-1.69988E-001	0.00000E+000	9	...........	1488.69
	35	0.4002	-1.65084E-001	2.88091E-006	0.00000E+000	-1.64987E-001	0.00000E+000	9	...........	1488.69
	40	0.455783	-1.60083E-001	2.88568E-006	0.00000E+000	-1.59986E-001	0.00000E+000	9	...........	1488.69
	45	0.511367	-1.55068E-001	2.90218E-006	0.00000E+000	-1.54972E-001	0.00000E+000	9	...........	1488.69
	50	0.56695	-1.50069E-001	2.89616E-006	0.00000E+000	-1.49971E-001	0.00000E+000	9	...........	1488.69
	55	0.622533	-1.45063E-001	2.91001E-006	0.00000E+000	-1.44969E-001	0.00000E+000	9	...........	1488.69
	60	0.678117	-1.40064E-001	2.92411E-006	0.00000E+000	-1.39968E-001	0.00000E+000	9	...........	1488.69
	65	0.7337	-1.35061E-001	2.91412E-006	0.00000E+000	-1.34967E-001	0.00000E+000	9	...........	1488.69
	70	0.789283	-1.30061E-001	2.90976E-006	0.00000E+000	-1.29965E-001	0.00000E+000	9	...........	1488.69
	75	0.844867	-1.25056E-001	2.91603E-006	0.00000E+000	-1.24964E-001	0.00000E+000	9	...........	1488.69
	80	0.90045	-1.20054E-001	2.92285E-006	0.00000E+000	-1.19963E-001	0.00000E+000	9	...........	1488.69
	85	0.95603	-1.15052E-001	2.93093E-006	0.00000E+000	-1.14961E-001	0.00000E+000	9	...........	1488.69
	90	1.01162	-1.10049E-001	2.92290E-006	0.00000E+000	-1.09960E-001	0.00000E+000	9	...........	1488.69
	95	1.0672	-1.05048E-001	2.92676E-006	0.00000E+000	-1.04958E-001	0.00000E+000	9	...........	1488.69
	100	1.12278	-1.00034E-001	2.94813E-006	0.00000E+000	-9.99447E-002	0.00000E+000	9	...........	1488.69
	105	1.17837	-9.50308E-002	2.93604E-006	0.00000E+000	-9.49433E-002	0.00000E+000	9	...........	1488.69
	110	1.23395	-9.00297E-002	2.94151E-006	0.00000E+000	-8.99420E-002	0.00000E+000	9	...........	1488.69
	115	1.28953	-8.50304E-002	2.95501E-006	0.00000E+000	-8.49406E-002	0.00000E+000	9	...........	1488.69
	120	1.34512	-8.00301E-002	2.93845E-006	0.00000E+000	-7.99393E-002	0.00000E+000	9	...........	1488.69
	125	1.4007	-7.50257E-002	2.96955E-006	0.00000E+000	-7.49380E-002	0.00000E+000	9	...........	1488.69
	130	1.45628	-7.00247E-002	2.98049E-006	0.00000E+000	-6.99366E-002	0.00000E+000	9	...........	1488.69
	135	1.51187	-6.50205E-002	2.98209E-006	0.00000E+000	-6.49353E-002	0.00000E+000	9	...........	1488.69
	140	1.56745	-6.00179E-002	2.99634E-006	0.00000E+000	-5.99340E-002	0.00000E+000	9	...........	1488.69
	145	1.62303	-5.50142E-002	3.01691E-006	0.00000E+000	-5.49326E-002	0.00000E+000	9	...........	1488.69
	150	1.67862	-5.00105E-002	3.03216E-006	0.00000E+000	-4.99313E-002	0.00000E+000	9	...........	1488.69
	155	1.7342	-4.49960E-002	3.04756E-006	0.00000E+000	-4.49174E-002	0.00000E+000	9	...........	1488.69
	160	1.78978	-3.99966E-002	3.06687E-006	0.00000E+000	-3.99161E-002	0.00000E+000	9	...........	1488.69
	165	1.84537	-3.49927E-002	3.08433E-006	0.00000E+000	-3.49148E-002	0.00000E+000	9	...........	1488.69
	170	1.90095	-2.99869E-002	3.12566E-006	0.00000E+000	-2.99134E-002	0.00000E+000	9	...........	1488.69
	175	1.95653	-2.49853E-002	3.13895E-006	0.00000E+000	-2.49121E-002	0.00000E+000	9	...........	1488.69
	180	2.01212	-1.99781E-002	3.16037E-006	0.00000E+000	-1.99108E-002	0.00000E+000	9	...........	1488.69
	185	2.0677	-1.49801E-002	3.19468E-006	0.00000E+000	-1.49094E-002	0.00000E+000	9	...........	1488.69
	190	2.12328	-9.97436E-003	3.22318E-006	0.00000E+000	-9.90810E-003	0.00000E+000	9	...........	1488.69
	195	2.17887	-4.96895E-003	3.26506E-006	0.00000E+000	-4.90676E-003	0.00000E+000	9	...........	1488.69
	200	2.23445	2.93164E-005	3.31262E-006	0.00000E+000	9.45777E-005	0.00000E+000	9	...........	1488.69
	205	2.29003	-4.93092E-003	-9.84727E-007	0.00000E+000	-4.90676E-003	0.00000E+000	9	...........	1488.69
	210	2.34562	-9.93356E-003	-1.15969E-006	0.00000E+000	-9.90810E-003	0.00000E+000	9	...........	1488.69
	215	2.4012	-1.49397E-002	-1.26393E-006	0.00000E+000	-1.49094E-002	0.00000E+000	9	...........	1488.69
	220	2.45678	-1.99424E-002	-1.35864E-006	0.00000E+000	-1.99108E-002	0.00000E+000	9	...........	1488.69
	225	2.51237	-2.49465E-002	-1.42210E-006	0.00000E+000	-2.49121E-002	0.00000E+000	9	...........	1488.69
	230	2.56795	-2.99475E-002	-1.48625E-006	0.00000E+000	-2.99134E-002	0.00000E+000	9	...........	1488.69
	235	2.62353	-3.49547E-002	-1.52899E-006	0.00000E+000	-3.49148E-002	0.00000E+000	9	...........	1488.69
	240	2.67912	-3.99572E-002	-1.56501E-006	0.00000E+000	-3.99161E-002	0.00000E+000	9	...........	1488.69
[...]
	1041	11.5836	-4.09550E-002	-1.56973E-006	0.00000E+000	-4.09164E-002	0.00000E+000	9	...........	1488.69
	1046	11.6391	-4.59605E-002	-1.62049E-006	0.00000E+000	-4.59177E-002	0.00000E+000	9	...........	1488.69
	1051	11.6947	-5.09751E-002	-1.66990E-006	0.00000E+000	-5.09316E-002	0.00000E+000	9	...........	1488.69
	1056	11.7503	-5.59753E-002	-1.68971E-006	0.00000E+000	-5.59329E-002	0.00000E+000	9	...........	1488.69
	1061	11.8059	-6.09791E-002	-1.72463E-006	0.00000E+000	-6.09342E-002	0.00000E+000	9	...........	1488.69
	1066	11.8615	-6.59825E-002	-1.75327E-006	0.00000E+000	-6.59356E-002	0.00000E+000	9	...........	1488.69
	1071	11.9171	-7.09859E-002	-1.79586E-006	0.00000E+000	-7.09369E-002	0.00000E+000	9	...........	1488.69
	1076	11.9727	-7.59886E-002	-1.83739E-006	0.00000E+000	-7.59382E-002	0.00000E+000	9	...........	1488.69
	1081	12.0282	-8.09892E-002	-1.84913E-006	0.00000E+000	-8.09396E-002	0.00000E+000	9	...........	1488.69
	1086	12.0838	-8.59883E-002	-1.88901E-006	0.00000E+000	-8.59409E-002	0.00000E+000	9	...........	1488.69
	1091	12.1394	-9.09937E-002	-1.92914E-006	0.00000E+000	-9.09423E-002	0.00000E+000	9	...........	1488.69
	1096	12.195	-9.59924E-002	-1.96024E-006	0.00000E+000	-9.59436E-002	0.00000E+000	9	...........	1488.69
	1101	12.2506	-1.00995E-001	-1.97981E-006	0.00000E+000	-1.00945E-001	0.00000E+000	9	...........	1488.69
	1106	12.3062	-1.06012E-001	-2.02746E-006	0.00000E+000	-1.05959E-001	0.00000E+000	9	...........	1488.69
	1111	12.3617	-1.11013E-001	-2.07456E-006	0.00000E+000	-1.10960E-001	0.00000E+000	9	...........	1488.69
	1116	12.4173	-1.16014E-001	-2.10968E-006	0.00000E+000	-1.15961E-001	0.00000E+000	9	...........	1488.69
	1121	12.4729	-1.21015E-001	-2.15191E-006	0.00000E+000	-1.20963E-001	0.00000E+000	9	...........	1488.69
	1126	12.5285	-1.26019E-001	-2.18547E-006	0.00000E+000	-1.25964E-001	0.00000E+000	9	...........	1488.90
	1131	12.5841	-1.31021E-001	-2.23408E-006	0.00000E+000	-1.30965E-001	0.00000E+000	9	...........	1488.97
	1136	12.6397	-1.36023E-001	-2.27737E-006	0.00000E+000	-1.35967E-001	0.00000E+000	9	...........	1488.97
	1141	12.6952	-1.41025E-001	-2.31233E-006	0.00000E+000	-1.40968E-001	0.00000E+000	9	...........	1488.97
	1146	12.7508	-1.46027E-001	-2.36942E-006	0.00000E+000	-1.45969E-001	0.00000E+000	9	...........	1488.97
	1151	12.8064	-1.51028E-001	-2.41161E-006	0.00000E+000	-1.50971E-001	0.00000E+000	9	...........	1488.97
	1156	12.862	-1.56031E-001	-2.46463E-006	0.00000E+000	-1.55972E-001	0.00000E+000	9	...........	1488.97
	1161	12.9176	-1.61046E-001	-2.53696E-006	0.00000E+000	-1.60986E-001	0.00000E+000	9	...........	1488.97
	1166	12.9732	-1.66043E-001	-2.59134E-006	0.00000E+000	-1.65987E-001	0.00000E+000	9	...........	1488.97
	1171	13.0287	-1.71045E-001	-2.64286E-006	0.00000E+000	-1.70989E-001	0.00000E+000	9	...........	1488.97
	1176	13.0843	-1.76051E-001	-2.72297E-006	0.00000E+000	-1.75990E-001	0.00000E+000	9	...........	1488.97
	1181	13.1399	-1.81056E-001	-2.80599E-006	0.00000E+000	-1.80991E-001	0.00000E+000	9	...........	1488.97
	1186	13.1955	-1.86056E-001	-2.90250E-006	0.00000E+000	-1.85993E-001	0.00000E+000	9	...........	1488.97
	1191	13.2511	-1.91056E-001	-2.98722E-006	0.00000E+000	-1.90994E-001	0.00000E+000	9	...........	1488.97
	1196	13.3067	-1.96061E-001	-3.08830E-006	0.00000E+000	-1.95995E-001	0.00000E+000	9	...........	1488.97
	1200	13.3511	-2.00062E-001	-3.21155E-006	0.00000E+000	-1.99996E-001	0.00000E+000	9	...........	1488.97
CURVE4	TABLE
	Pt	T	Vf	Im	Vu	Sig	Ach	IERange	Over	Temp
	#	s	V vs. Ref.	A	V	V	V	#	bits	deg C
	1201	13.3622	-2.00081E-001	-7.35669E-007	0.00000E+000	-1.99996E-001	0.00000E+000	9	...........	1488.97

File: CV_ECSA_#1_#10.DTA
EXPLAIN
TAG	CV
TITLE	LABEL	ECSA	Test Identifier
DATE	LABEL	20.8.2024	Date
TIME	LABEL	8:39:53	Time
NOTES	NOTES	1	Notes...

PSTAT	PSTAT	IFC1010-36105	Potentiostat
VINIT	POTEN	-2.00000E-001	F	A Potential (V)
VLIMIT1	POTEN	0.00000E+000	F	A Potential (V)
VLIMIT2	POTEN	-2.00000E-001	F	A Potential (V)
VFINAL	POTEN	-2.00000E-001	F	A Potential (V)
SCANRATE	QUANT	9.99548E+001	A Real Number
STEPSIZE	QUANT	1.00000E+000	Step Size (mV)
CYCLES	IQUANT	3	Cycles (#)
IMODE	SELECTOR	1	I/E Range Mode
IRANGE	QUANT	3.00000E-001	Max Current (mA)
AREA	QUANT	1.00000E+000	Sample Area (cm^2)
EQDELAY	QUANT	0.00000E+000	Equil. Time (s)
IRCOMP	SELECTOR	0	IRComp
PFCOR	QUANT	5.00000E+001	PF Corr. (ohm)
SAMPLINGMODE	SELECTOR	2	Sampling Mode
EOC	QUANT	-0.1790659	Open Circuit (V)
ELECTRODETYPE	SELECTOR	0	Electrode Type
STRIPPING	TOGGLE	F	Used for Stripping
SEQUENCER	TOGGLE	TRUE	Run as Sequence
PSTATMODEL	IQUANT	64	Pstat Model
PSTATSECTION	LABEL	IFC1010-36105	Pstat Section
PSTATSERIALNO	LABEL	36105	Pstat Serial Number
CTRLMODE	IQUANT	1	Control Mode
ELECTROMETER	IQUANT	0	RE=0 or CS=1
IESTAB	IQUANT	2	I/E Stability
CASPEED	IQUANT	4	Control Amp Speed
CONVENTION	IQUANT	1	Current Convention
ICHRANGE	IQUANT	2	Ich Range
ICHRANGEMODE	TOGGLE	F	Ich Auto Range
ICHOFFSETENABLE	TOGGLE	F	Ich Offset Enable
ICHOFFSET	QUANT	0	Ich Offset (V)
ICHFILTER	IQUANT	3	Ich Filter
VCHRANGE	IQUANT	1	Vch Range
VCHRANGEMODE	TOGGLE	F	Vch Auto Range
VCHOFFSETENABLE	TOGGLE	F	Vch Offset Enable
VCHOFFSET	QUANT	0	Vch Offset (V)
VCHFILTER	IQUANT	3	Vch Filter
IERANGELOWERLIMIT	IQUANT	4	I/E Range Lower Limit
IERANGEMODE	TOGGLE	F	I/E AutoRange
IERANGE	IQUANT	9	I/E Range
ACHSELECT	IQUANT	0	Ach Select
ACHRANGE	IQUANT	2	Ach Range
ACHOFFSETENABLE	TOGGLE	F	Ach Offset Enable
ACHOFFSET	QUANT	0	Ach Offset (V)
ACHFILTER	IQUANT	1	Ach Filter
SENSECABLEID	IQUANT	13	Sense Cable ID
PWRCABLEID	IQUANT	13	Power Cable ID
DCCALDATE	LABEL	10/17/2023	DC Calibration Date
ACCALDATE	LABEL	6/2/2023	AC Calibration Date
FRAMEWORKVERSION	LABEL	7.10.3	Framework Version
INSTRUMENTVERSION	LABEL	4.91	Instrument Version
COMMVERSION	LABEL	3.10	Communications Version
CPUPLDVERSION	LABEL	2.22	CPU PLD Version
CTRLPLDVERSION	LABEL	0.00	CTRL PLD Version
PSTATPLDVERSION	LABEL	0.00	PSTAT PLD Version
CURVE1	TABLE
	Pt	T	Vf	Im	Vu	Sig	Ach	IERange	Over	Temp
	#	s	V vs. Ref.	A	V	V	V	#	bits	deg C
	0	0.01	-2.00079E-001	-4.33918E-007	0.00000E+000	-1.99996E-001	0.00000E+000	9	...........	1488.97
	4	0.05	-1.96114E-001	2.61618E-006	0.00000E+000	-1.96008E-001	0.00000E+000	9	...........	1488.97
	8	0.09	-1.92112E-001	2.82342E-006	0.00000E+000	-1.92007E-001	0.00000E+000	9	...........	1488.83
	12	0.13	-1.88111E-001	2.92400E-006	0.00000E+000	-1.88006E-001	0.00000E+000	9	...........	1488.78
	16	0.17	-1.84106E-001	2.98893E-006	0.00000E+000	-1.84005E-001	0.00000E+000	9	...........	1488.78
	20	0.21	-1.80105E-001	3.04516E-006	0.00000E+000	-1.80004E-001	0.00000E+000	9	...........	1488.78
	24	0.25	-1.76116E-001	3.07779E-006	0.00000E+000	-1.76015E-001	0.00000E+000	9	...........	1488.78
	28	0.29	-1.72114E-001	3.12403E-006	0.00000E+000	-1.72014E-001	0.00000E+000	9	...........	1488.78
	32	0.33	-1.68112E-001	3.13564E-006	0.00000E+000	-1.68013E-001	0.00000E+000	9	...........	1488.78
	36	0.37	-1.64114E-001	3.15455E-006	0.00000E+000	-1.64012E-001	0.00000E+000	9	...........	1488.78
	40	0.41	-1.60122E-001	3.15611E-006	0.00000E+000	-1.60023E-001	0.00000E+000	9	...........	1488.78
	44	0.45	-1.56122E-001	3.16849E-006	0.00000E+000	-1.56022E-001	0.00000E+000	9	...........	1488.78
	48	0.49	-1.52118E-001	3.17507E-006	0.00000E+000	-1.52021E-001	0.00000E+000	9	...........	1488.78
	52	0.53	-1.48117E-001	3.18562E-006	0.00000E+000	-1.48020E-001	0.00000E+000	9	...........	1488.78
	56	0.57	-1.44129E-001	3.15784E-006	0.00000E+000	-1.44031E-001	0.00000E+000	9	...........	1488.78
	60	0.61	-1.40131E-001	3.19683E-006	0.00000E+000	-1.40030E-001	0.00000E+000	9	...........	1488.78
	64	0.65	-1.36126E-001	3.19248E-006	0.00000E+000	-1.36029E-001	0.00000E+000	9	...........	1488.78
	68	0.69	-1.32125E-001	3.18076E-006	0.00000E+000	-1.32028E-001	0.00000E+000	9	...........	1488.78
	72	0.73	-1.28125E-001	3.18757E-006	0.00000E+000	-1.28027E-001	0.00000E+000	9	...........	1488.78
	76	0.77	-1.24137E-001	3.17998E-006	0.00000E+000	-1.24039E-001	0.00000E+000	9	...........	1488.78
	80	0.81	-1.20133E-001	3.18500E-006	0.00000E+000	-1.20038E-001	0.00000E+000	9	...........	1488.78
	84	0.85	-1.16132E-001	3.19733E-006	0.00000E+000	-1.16036E-001	0.00000E+000	9	...........	1488.78
	88	0.89	-1.12129E-001	3.19092E-006	0.00000E+000	-1.12035E-001	0.00000E+000	9	...........	1488.78
	92	0.93	-1.08141E-001	3.19566E-006	0.00000E+000	-1.08047E-001	0.00000E+000	9	...........	1488.78
	96	0.97	-1.04140E-001	3.19594E-006	0.00000E+000	-1.04046E-001	0.00000E+000	9	...........	1488.78
	100	1.01	-1.00135E-001	3.19142E-006	0.00000E+000	-1.00045E-001	0.00000E+000	9	...........	1488.78
	104	1.05	-9.61358E-002	3.19806E-006	0.00000E+000	-9.60436E-002	0.00000E+000	9	...........	1488.78
	108	1.09	-9.21345E-002	3.19739E-006	0.00000E+000	-9.20426E-002	0.00000E+000	9	...........	1488.72
	112	1.13	-8.81467E-002	3.20999E-006	0.00000E+000	-8.80540E-002	0.00000E+000	9	...........	1488.69
	116	1.17	-8.41437E-002	3.21853E-006	0.00000E+000	-8.40529E-002	0.00000E+000	9	...........	1488.69
	120	1.21	-8.01438E-002	3.21959E-006	0.00000E+000	-8.00518E-002	0.00000E+000	9	...........	1488.69
	124	1.25	-7.61412E-002	3.22863E-006	0.00000E+000	-7.60508E-002	0.00000E+000	9	...........	1488.69
	128	1.29	-7.21517E-002	3.22573E-006	0.00000E+000	-7.20622E-002	0.00000E+000	9	...........	1488.69
	132	1.33	-6.81485E-002	3.23097E-006	0.00000E+000	-6.80611E-002	0.00000E+000	9	...........	1488.69
	136	1.37	-6.41460E-002	3.24882E-006	0.00000E+000	-6.40601E-002	0.00000E+000	9	...........	1488.69
	140	1.41	-6.01443E-002	3.25814E-006	0.00000E+000	-6.00590E-002	0.00000E+000	9	...........	1488.69
	144	1.45	-5.61541E-002	3.26410E-006	0.00000E+000	-5.60704E-002	0.00000E+000	9	...........	1488.69
	148	1.49	-5.21551E-002	3.27476E-006	0.00000E+000	-5.20694E-002	0.00000E+000	9	...........	1488.69
	152	1.53	-4.81513E-002	3.29663E-006	0.00000E+000	-4.80683E-002	0.00000E+000	9	...........	1488.69
	156	1.57	-4.41498E-002	3.32106E-006	0.00000E+000	-4.40672E-002	0.00000E+000	9	...........	1488.69
	160	1.61	-4.01482E-002	3.32876E-006	0.00000E+000	-4.00662E-002	0.00000E+000	9	...........	1488.69
	164	1.65	-3.61538E-002	3.35375E-006	0.00000E+000	-3.60776E-002	0.00000E+000	9	...........	1488.69
	168	1.69	-3.21537E-002	3.36831E-006	0.00000E+000	-3.20765E-002	0.00000E+000	9	...........	1488.69
	172	1.73	-2.81535E-002	3.38130E-006	0.00000E+000	-2.80754E-002	0.00000E+000	9	...........	1488.69
	176	1.77	-2.41494E-002	3.39798E-006	0.00000E+000	-2.40744E-002	0.00000E+000	9	...........	1488.69
	180	1.81	-2.01600E-002	3.42186E-006	0.00000E+000	-2.00858E-002	0.00000E+000	9	...........	1488.69
	184	1.85	-1.61564E-002	3.45120E-006	0.00000E+000	-1.60847E-002	0.00000E+000	9	...........	1488.69
	188	1.89	-1.21533E-002	3.47998E-006	0.00000E+000	-1.20837E-002	0.00000E+000	9	...........	1488.69
	192	1.93	-8.15217E-003	3.50274E-006	0.00000E+000	-8.08261E-003	0.00000E+000	9	...........	1488.69
	196	1.97	-4.15880E-003	3.53571E-006	0.00000E+000	-4.09404E-003	0.00000E+000	9	...........	1488.69
[...]
	1036	10.37	-3.61114E-002	-1.73779E-006	0.00000E+000	-3.60776E-002	0.00000E+000	9	...........	1488.69
	1041	10.42	-4.11026E-002	-1.81014E-006	0.00000E+000	-4.10664E-002	0.00000E+000	9	...........	1488.69
	1046	10.47	-4.61071E-002	-1.84885E-006	0.00000E+000	-4.60678E-002	0.00000E+000	9	...........	1488.69
	1051	10.52	-5.11105E-002	-1.90001E-006	0.00000E+000	-5.10691E-002	0.00000E+000	9	...........	1488.69
	1056	10.57	-5.61114E-002	-1.90419E-006	0.00000E+000	-5.60704E-002	0.00000E+000	9	...........	1488.69
	1061	10.62	-6.11041E-002	-1.96840E-006	0.00000E+000	-6.10593E-002	0.00000E+000	9	...........	1488.69
	1066	10.67	-6.61067E-002	-1.98552E-006	0.00000E+000	-6.60606E-002	0.00000E+000	9	...........	1488.69
	1071	10.72	-7.11087E-002	-2.04348E-006	0.00000E+000	-7.10619E-002	0.00000E+000	9	...........	1488.69
	1076	10.77	-7.60979E-002	-2.05363E-006	0.00000E+000	-7.60508E-002	0.00000E+000	9	...........	1488.69
	1081	10.82	-8.11015E-002	-2.10322E-006	0.00000E+000	-8.10521E-002	0.00000E+000	9	...........	1488.69
	1086	10.87	-8.61026E-002	-2.13011E-006	0.00000E+000	-8.60534E-002	0.00000E+000	9	...........	1488.69
	1091	10.92	-9.11023E-002	-2.19789E-006	0.00000E+000	-9.10548E-002	0.00000E+000	9	...........	1488.69
	1096	10.97	-9.60919E-002	-2.20380E-006	0.00000E+000	-9.60436E-002	0.00000E+000	9	...........	1488.69
	1101	11.02	-1.01093E-001	-2.25663E-006	0.00000E+000	-1.01045E-001	0.00000E+000	9	...........	1488.69
	1106	11.07	-1.06097E-001	-2.26360E-006	0.00000E+000	-1.06046E-001	0.00000E+000	9	...........	1488.69
	1111	11.12	-1.11084E-001	-2.31620E-006	0.00000E+000	-1.11035E-001	0.00000E+000	9	...........	1488.69
	1116	11.17	-1.16087E-001	-2.34421E-006	0.00000E+000	-1.16036E-001	0.00000E+000	9	...........	1488.69
	1121	11.22	-1.21087E-001	-2.39714E-006	0.00000E+000	-1.21038E-001	0.00000E+000	9	...........	1488.69
	1126	11.27	-1.26089E-001	-2.41929E-006	0.00000E+000	-1.26039E-001	0.00000E+000	9	...........	1488.69
	1131	11.32	-1.31079E-001	-2.49393E-006	0.00000E+000	-1.31028E-001	0.00000E+000	9	...........	1488.69
	1136	11.37	-1.36080E-001	-2.50319E-006	0.00000E+000	-1.36029E-001	0.00000E+000	9	...........	1488.69
	1141	11.42	-1.41082E-001	-2.57744E-006	0.00000E+000	-1.41031E-001	0.00000E+000	9	...........	1488.69
	1146	11.47	-1.46073E-001	-2.61130E-006	0.00000E+000	-1.46019E-001	0.00000E+000	9	...........	1488.69
	1151	11.52	-1.51076E-001	-2.68621E-006	0.00000E+000	-1.51021E-001	0.00000E+000	9	...........	1488.69
	1156	11.57	-1.56079E-001	-2.73698E-006	0.00000E+000	-1.56022E-001	0.00000E+000	9	...........	1488.69
	1161	11.62	-1.61080E-001	-2.82840E-006	0.00000E+000	-1.61023E-001	0.00000E+000	9	...........	1488.69
	1166	11.67	-1.66067E-001	-2.85484E-006	0.00000E+000	-1.66012E-001	0.00000E+000	9	...........	1488.69
	1171	11.72	-1.71069E-001	-2.93651E-006	0.00000E+000	-1.71014E-001	0.00000E+000	9	...........	1488.69
	1176	11.77	-1.76074E-001	-3.00987E-006	0.00000E+000	-1.76015E-001	0.00000E+000	9	...........	1488.69
	1181	11.82	-1.81065E-001	-3.11094E-006	0.00000E+000	-1.81004E-001	0.00000E+000	9	...........	1488.69
	1186	11.87	-1.86065E-001	-3.18859E-006	0.00000E+000	-1.86005E-001	0.00000E+000	9	...........	1488.69
	1191	11.92	-1.91066E-001	-3.31316E-006	0.00000E+000	-1.91006E-001	0.00000E+000	9	...........	1488.69
	1196	11.97	-1.96069E-001	-3.39784E-006	0.00000E+000	-1.96008E-001	0.00000E+000	9	...........	1488.69
	1200	12.01	-2.00058E-001	-3.48848E-006	0.00000E+000	-1.99996E-001	0.00000E+000	9	...........	1488.69
CURVE4	TABLE
	Pt	T	Vf	Im	Vu	Sig	Ach	IERange	Over	Temp
	#	s	V vs. Ref.	A	V	V	V	#	bits	deg C
	1201	12.02	-2.00080E-001	-8.37229E-007	0.00000E+000	-1.99996E-001	0.00000E+000	9	...........	1488.69