Folder: gamry_post_processing_/input (part 18)

File: CV_ECSA_#2.DTA
EXPLAIN
TAG	CV
TITLE	LABEL	ECSA	Test Identifier
DATE	LABEL	11/7/2023	Date
TIME	LABEL	10:46:12	Time
NOTES	NOTES	1	Notes...

PSTAT	PSTAT	IFC1010-36108	Potentiostat
VINIT	POTEN	0.00000E+000	F	Initial E (V)
VLIMIT1	POTEN	5.00000E-001	F	Scan Limit 1 (V)
VLIMIT2	POTEN	0.00000E+000	F	Scan Limit 2 (V)
VFINAL	POTEN	0.00000E+000	F	Final E (V)
SCANRATE	QUANT	2.00000E+001	A Real Number
STEPSIZE	QUANT	2.00000E+000	Step Size (mV)
CYCLES	IQUANT	1	Cycles (#)
IMODE	SELECTOR	0	I/E Range Mode
IRANGE	QUANT	3.00000E-001	Max Current (mA)
AREA	QUANT	1.00000E+000	Sample Area (cm^2)
EQDELAY	QUANT	0.00000E+000	Equil. Time (s)
IRCOMP	SELECTOR	0	IRComp
PFCOR	QUANT	5.00000E+001	PF Corr. (ohm)
SAMPLINGMODE	SELECTOR	1	Sampling Mode
EOC	QUANT	0	Open Circuit (V)
ELECTRODETYPE	SELECTOR	0	Electrode Type
STRIPPING	TOGGLE	F	Used for Stripping
SEQUENCER	TOGGLE	TRUE	Run as Sequence
PSTATMODEL	IQUANT	64	Pstat Model
PSTATSECTION	LABEL	IFC1010-36108	Pstat Section
PSTATSERIALNO	LABEL	36108	Pstat Serial Number
CTRLMODE	IQUANT	1	Control Mode
ELECTROMETER	IQUANT	0	RE=0 or CS=1
IESTAB	IQUANT	2	I/E Stability
CASPEED	IQUANT	4	Control Amp Speed
CONVENTION	IQUANT	1	Current Convention
ICHRANGE	IQUANT	2	Ich Range
ICHRANGEMODE	TOGGLE	F	Ich Auto Range
ICHOFFSETENABLE	TOGGLE	F	Ich Offset Enable
ICHOFFSET	QUANT	0	Ich Offset (V)
ICHFILTER	IQUANT	3	Ich Filter
VCHRANGE	IQUANT	2	Vch Range
VCHRANGEMODE	TOGGLE	F	Vch Auto Range
VCHOFFSETENABLE	TOGGLE	F	Vch Offset Enable
VCHOFFSET	QUANT	0	Vch Offset (V)
VCHFILTER	IQUANT	3	Vch Filter
IERANGELOWERLIMIT	IQUANT	4	I/E Range Lower Limit
IERANGEMODE	TOGGLE	T	I/E AutoRange
IERANGE	IQUANT	9	I/E Range
ACHSELECT	IQUANT	0	Ach Select
ACHRANGE	IQUANT	2	Ach Range
ACHOFFSETENABLE	TOGGLE	F	Ach Offset Enable
ACHOFFSET	QUANT	0	Ach Offset (V)
ACHFILTER	IQUANT	1	Ach Filter
SENSECABLEID	IQUANT	13	Sense Cable ID
PWRCABLEID	IQUANT	13	Power Cable ID
DCCALDATE	LABEL	8/10/2023	DC Calibration Date
ACCALDATE	LABEL	6/3/2023	AC Calibration Date
FRAMEWORKVERSION	LABEL	7.10.1	Framework Version
INSTRUMENTVERSION	LABEL	4.80	Instrument Version
COMMVERSION	LABEL	3.10	Communications Version
CPUPLDVERSION	LABEL	2.22	CPU PLD Version
CTRLPLDVERSION	LABEL	0.00	CTRL PLD Version
PSTATPLDVERSION	LABEL	0.00	PSTAT PLD Version
CURVE1	TABLE
	Pt	T	Vf	Im	Vu	Sig	Ach	IERange	Over	Temp
	#	s	V vs. Ref.	A	V	V	V	#	bits	deg C
	0	0.1	-7.42184E-005	-2.49072E-007	0.00000E+000	3.39746E-006	0.00000E+000	9	...........	1466.71
	5	0.6	9.98280E-003	-2.39486E-008	0.00000E+000	1.00004E-002	0.00000E+000	5	...........	1466.71
	10	1.1	1.99732E-002	9.36961E-008	0.00000E+000	1.99974E-002	0.00000E+000	5	....ih..i..	1466.71
	15	1.6	2.99922E-002	1.74843E-007	0.00000E+000	2.99944E-002	0.00000E+000	6	...........	1466.71
	20	2.1	3.99983E-002	2.41112E-007	0.00000E+000	4.00039E-002	0.00000E+000	6	...........	1466.71
	25	2.6	4.99594E-002	3.00131E-007	0.00000E+000	5.00009E-002	0.00000E+000	6	...........	1466.62
	30	3.1	5.99719E-002	3.51669E-007	0.00000E+000	5.99979E-002	0.00000E+000	6	...........	1466.62
	35	3.6	6.99708E-002	4.00084E-007	0.00000E+000	6.99949E-002	0.00000E+000	6	...........	1466.71
	40	4.1	7.99782E-002	4.39040E-007	0.00000E+000	8.00044E-002	0.00000E+000	6	...........	1466.71
	45	4.6	8.99986E-002	4.76399E-007	0.00000E+000	9.00014E-002	0.00000E+000	6	...........	1466.71
	50	5.1	9.99597E-002	5.13501E-007	0.00000E+000	9.99984E-002	0.00000E+000	6	...........	1466.71
	55	5.6	1.09964E-001	5.49492E-007	0.00000E+000	1.09995E-001	0.00000E+000	6	...........	1466.71
	60	6.1	1.19984E-001	5.84420E-007	0.00000E+000	1.20005E-001	0.00000E+000	6	...........	1466.71
	65	6.6	1.29999E-001	6.20843E-007	0.00000E+000	1.30002E-001	0.00000E+000	6	...........	1466.71
	70	7.1	1.39965E-001	6.55172E-007	0.00000E+000	1.39999E-001	0.00000E+000	6	...........	1466.71
	75	7.6	1.49965E-001	6.90989E-007	0.00000E+000	1.49996E-001	0.00000E+000	6	...........	1466.71
	80	8.1	1.59980E-001	7.29689E-007	0.00000E+000	1.60005E-001	0.00000E+000	6	...........	1466.71
	85	8.6	1.69995E-001	7.70054E-007	0.00000E+000	1.70002E-001	0.00000E+000	6	...........	1466.71
	90	9.1	1.79974E-001	8.13593E-007	0.00000E+000	1.79999E-001	0.00000E+000	6	...........	1466.71
	95	9.6	1.89988E-001	8.53798E-007	0.00000E+000	1.89996E-001	0.00000E+000	6	.....h.....	1466.71
	100	10.1	1.99991E-001	9.21529E-007	0.00000E+000	2.00006E-001	0.00000E+000	7	...........	1466.71
	105	10.6	2.09987E-001	9.68182E-007	0.00000E+000	2.10003E-001	0.00000E+000	7	...........	1466.71
	110	11.1	2.19986E-001	1.01848E-006	0.00000E+000	2.20000E-001	0.00000E+000	7	...........	1466.71
	115	11.6	2.29965E-001	1.06584E-006	0.00000E+000	2.29997E-001	0.00000E+000	7	...........	1466.71
	120	12.1	2.39976E-001	1.12971E-006	0.00000E+000	2.39994E-001	0.00000E+000	7	...........	1466.71
	125	12.6	2.50007E-001	1.19710E-006	0.00000E+000	2.50003E-001	0.00000E+000	7	...........	1466.71
	130	13.1	2.59990E-001	1.26539E-006	0.00000E+000	2.60000E-001	0.00000E+000	7	...........	1466.71
	135	13.6	2.70012E-001	1.33381E-006	0.00000E+000	2.69997E-001	0.00000E+000	7	...........	1466.71
	140	14.1	2.79972E-001	1.40805E-006	0.00000E+000	2.79994E-001	0.00000E+000	7	...........	1466.71
	145	14.6	2.90012E-001	1.49310E-006	0.00000E+000	2.90004E-001	0.00000E+000	7	...........	1466.71
	150	15.1	2.99988E-001	1.58314E-006	0.00000E+000	3.00001E-001	0.00000E+000	7	...........	1466.71
	155	15.6	3.10022E-001	1.68502E-006	0.00000E+000	3.09998E-001	0.00000E+000	7	...........	1466.71
	160	16.1	3.19993E-001	1.78991E-006	0.00000E+000	3.19995E-001	0.00000E+000	7	...........	1466.71
	165	16.6	3.30015E-001	1.91208E-006	0.00000E+000	3.30004E-001	0.00000E+000	7	...........	1466.71
	170	17.1	3.40010E-001	2.04954E-006	0.00000E+000	3.40001E-001	0.00000E+000	7	...........	1466.71
	175	17.6	3.50019E-001	2.19694E-006	0.00000E+000	3.49998E-001	0.00000E+000	7	...........	1466.71
	180	18.1	3.60001E-001	2.37776E-006	0.00000E+000	3.59995E-001	0.00000E+000	7	...........	1466.71
	185	18.6	3.70011E-001	2.56008E-006	0.00000E+000	3.70005E-001	0.00000E+000	7	...........	1466.71
	190	19.1	3.80022E-001	2.77019E-006	0.00000E+000	3.80002E-001	0.00000E+000	7	...........	1466.71
	195	19.6	3.90025E-001	3.00611E-006	0.00000E+000	3.89999E-001	0.00000E+000	7	...........	1466.71
	200	20.1	4.00009E-001	3.28083E-006	0.00000E+000	3.99996E-001	0.00000E+000	7	...........	1466.71
	205	20.6	4.10013E-001	3.59698E-006	0.00000E+000	4.10005E-001	0.00000E+000	7	...........	1466.71
	210	21.1	4.19989E-001	3.97020E-006	0.00000E+000	4.20002E-001	0.00000E+000	7	...........	1466.71
	215	21.6	4.30000E-001	4.40716E-006	0.00000E+000	4.29999E-001	0.00000E+000	7	...........	1466.71
	220	22.1	4.40003E-001	4.91320E-006	0.00000E+000	4.39996E-001	0.00000E+000	7	...........	1466.71
	225	22.6	4.50009E-001	5.51993E-006	0.00000E+000	4.49993E-001	0.00000E+000	7	...........	1466.71
	230	23.1	4.59995E-001	6.23262E-006	0.00000E+000	4.60003E-001	0.00000E+000	7	...........	1466.71
	235	23.6	4.70002E-001	7.11027E-006	0.00000E+000	4.70000E-001	0.00000E+000	7	...........	1466.71
	240	24.1	4.80002E-001	8.15869E-006	0.00000E+000	4.79997E-001	0.00000E+000	7	...........	1466.71
	245	24.6	4.90019E-001	9.44519E-006	0.00000E+000	4.89994E-001	0.00000E+000	8	...........	1466.80
	250	25.1	5.00028E-001	1.09848E-005	0.00000E+000	5.00003E-001	0.00000E+000	8	...........	1466.80
	255	25.6	4.90027E-001	8.28490E-006	0.00000E+000	4.89994E-001	0.00000E+000	8	...........	1466.71
[...]
	330	33.1	3.40010E-001	4.96309E-007	0.00000E+000	3.40001E-001	0.00000E+000	6	...........	1466.71
	335	33.6	3.30028E-001	3.97090E-007	0.00000E+000	3.30004E-001	0.00000E+000	6	...........	1466.71
	340	34.1	3.19978E-001	3.12445E-007	0.00000E+000	3.19995E-001	0.00000E+000	6	...........	1466.71
	345	34.6	3.10011E-001	2.38177E-007	0.00000E+000	3.09998E-001	0.00000E+000	6	...........	1466.71
	350	35.1	3.00002E-001	1.63547E-007	0.00000E+000	3.00001E-001	0.00000E+000	6	...........	1466.71
	355	35.6	2.90012E-001	9.96596E-008	0.00000E+000	2.90004E-001	0.00000E+000	6	...........	1466.71
	360	36.1	2.79975E-001	5.57190E-008	0.00000E+000	2.79994E-001	0.00000E+000	5	...........	1466.71
	365	36.6	2.70018E-001	3.69767E-009	0.00000E+000	2.69997E-001	0.00000E+000	5	...........	1466.71
	370	37.1	2.59992E-001	-4.38052E-008	0.00000E+000	2.60000E-001	0.00000E+000	5	...........	1466.71
	375	37.6	2.50003E-001	-9.02886E-008	0.00000E+000	2.50003E-001	0.00000E+000	5	.....h.....	1466.62
	380	38.1	2.39975E-001	-1.43497E-007	0.00000E+000	2.39994E-001	0.00000E+000	6	...........	1466.62
	385	38.6	2.29973E-001	-1.89839E-007	0.00000E+000	2.29997E-001	0.00000E+000	6	...........	1466.35
	390	39.1	2.20006E-001	-2.25183E-007	0.00000E+000	2.20000E-001	0.00000E+000	6	...........	1466.35
	395	39.6	2.09997E-001	-2.58321E-007	0.00000E+000	2.10003E-001	0.00000E+000	6	...........	1466.62
	400	40.1	2.00008E-001	-2.95795E-007	0.00000E+000	2.00006E-001	0.00000E+000	6	...........	1466.62
	405	40.6	1.89994E-001	-3.29096E-007	0.00000E+000	1.89996E-001	0.00000E+000	6	...........	1466.62
	410	41.1	1.79997E-001	-3.61937E-007	0.00000E+000	1.79999E-001	0.00000E+000	6	...........	1466.62
	415	41.6	1.70015E-001	-3.91542E-007	0.00000E+000	1.70002E-001	0.00000E+000	6	...........	1466.71
	420	42.1	1.59994E-001	-4.24421E-007	0.00000E+000	1.60005E-001	0.00000E+000	6	...........	1466.71
	425	42.6	1.49974E-001	-4.56140E-007	0.00000E+000	1.49996E-001	0.00000E+000	6	...........	1466.71
	430	43.1	1.39985E-001	-4.83918E-007	0.00000E+000	1.39999E-001	0.00000E+000	6	...........	1466.71
	435	43.6	1.30019E-001	-5.12989E-007	0.00000E+000	1.30002E-001	0.00000E+000	6	...........	1466.71
	440	44.1	1.19991E-001	-5.44253E-007	0.00000E+000	1.20005E-001	0.00000E+000	6	...........	1466.71
	445	44.6	1.09983E-001	-5.74758E-007	0.00000E+000	1.09995E-001	0.00000E+000	6	...........	1466.71
	450	45.1	9.99753E-002	-5.96752E-007	0.00000E+000	9.99984E-002	0.00000E+000	6	...........	1466.71
	455	45.6	9.00113E-002	-6.23148E-007	0.00000E+000	9.00014E-002	0.00000E+000	6	...........	1466.71
	460	46.1	7.99983E-002	-6.50147E-007	0.00000E+000	8.00044E-002	0.00000E+000	6	...........	1466.71
	465	46.6	6.99884E-002	-6.74024E-007	0.00000E+000	6.99949E-002	0.00000E+000	6	...........	1466.71
	470	47.1	5.99936E-002	-7.04422E-007	0.00000E+000	5.99979E-002	0.00000E+000	6	...........	1466.71
	475	47.6	4.99689E-002	-7.30501E-007	0.00000E+000	5.00009E-002	0.00000E+000	6	...........	1466.71
	480	48.1	4.00008E-002	-7.62932E-007	0.00000E+000	4.00039E-002	0.00000E+000	6	...........	1466.71
	485	48.6	2.99928E-002	-7.90329E-007	0.00000E+000	2.99944E-002	0.00000E+000	6	...........	1466.71
	490	49.1	1.99792E-002	-8.21147E-007	0.00000E+000	1.99974E-002	0.00000E+000	6	...........	1466.71
	495	49.6	9.99121E-003	-8.53839E-007	0.00000E+000	1.00004E-002	0.00000E+000	6	...........	1466.71
	500	50.1	-5.66030E-005	-8.82577E-007	0.00000E+000	3.39746E-006	0.00000E+000	6	...........	1466.71
CURVE2	TABLE
	Pt	T	Vf	Im	Vu	Sig	Ach	IERange	Over	Temp
	#	s	V vs. Ref.	A	V	V	V	#	bits	deg C
	501	50.2	-5.53019E-005	-7.41783E-007	0.00000E+000	3.39746E-006	0.00000E+000	6	...........	1466.71

File: CV_ECSA_#2_#1.DTA
EXPLAIN
TAG	CV
TITLE	LABEL	ECSA	Test Identifier
DATE	LABEL	17.7.2024	Date
TIME	LABEL	13:18:24	Time
NOTES	NOTES	1	Notes...

PSTAT	PSTAT	IFC1010-34090	Potentiostat
VINIT	POTEN	1.00000E-001	F	A Potential (V)
VLIMIT1	POTEN	2.00000E-001	F	A Potential (V)
VLIMIT2	POTEN	1.00000E-001	F	A Potential (V)
VFINAL	POTEN	1.00000E-001	F	A Potential (V)
SCANRATE	QUANT	1.00000E+001	A Real Number
STEPSIZE	QUANT	1.00000E+000	Step Size (mV)
CYCLES	IQUANT	3	Cycles (#)
IMODE	SELECTOR	1	I/E Range Mode
IRANGE	QUANT	3.00000E-001	Max Current (mA)
AREA	QUANT	1.00000E+000	Sample Area (cm^2)
EQDELAY	QUANT	0.00000E+000	Equil. Time (s)
IRCOMP	SELECTOR	0	IRComp
PFCOR	QUANT	5.00000E+001	PF Corr. (ohm)
SAMPLINGMODE	SELECTOR	2	Sampling Mode
EOC	QUANT	0.7205974	Open Circuit (V)
ELECTRODETYPE	SELECTOR	0	Electrode Type
STRIPPING	TOGGLE	F	Used for Stripping
SEQUENCER	TOGGLE	TRUE	Run as Sequence
PSTATMODEL	IQUANT	64	Pstat Model
PSTATSECTION	LABEL	IFC1010-34090	Pstat Section
PSTATSERIALNO	LABEL	34090	Pstat Serial Number
CTRLMODE	IQUANT	1	Control Mode
ELECTROMETER	IQUANT	0	RE=0 or CS=1
IESTAB	IQUANT	2	I/E Stability
CASPEED	IQUANT	4	Control Amp Speed
CONVENTION	IQUANT	1	Current Convention
ICHRANGE	IQUANT	2	Ich Range
ICHRANGEMODE	TOGGLE	F	Ich Auto Range
ICHOFFSETENABLE	TOGGLE	F	Ich Offset Enable
ICHOFFSET	QUANT	0	Ich Offset (V)
ICHFILTER	IQUANT	3	Ich Filter
VCHRANGE	IQUANT	1	Vch Range
VCHRANGEMODE	TOGGLE	F	Vch Auto Range
VCHOFFSETENABLE	TOGGLE	F	Vch Offset Enable
VCHOFFSET	QUANT	0	Vch Offset (V)
VCHFILTER	IQUANT	3	Vch Filter
IERANGELOWERLIMIT	IQUANT	4	I/E Range Lower Limit
IERANGEMODE	TOGGLE	F	I/E AutoRange
IERANGE	IQUANT	9	I/E Range
ACHSELECT	IQUANT	0	Ach Select
ACHRANGE	IQUANT	2	Ach Range
ACHOFFSETENABLE	TOGGLE	F	Ach Offset Enable
ACHOFFSET	QUANT	0	Ach Offset (V)
ACHFILTER	IQUANT	1	Ach Filter
SENSECABLEID	IQUANT	13	Sense Cable ID
PWRCABLEID	IQUANT	13	Power Cable ID
DCCALDATE	LABEL	1/30/2024	DC Calibration Date
ACCALDATE	LABEL	1/8/2024	AC Calibration Date
FRAMEWORKVERSION	LABEL	7.10.3	Framework Version
INSTRUMENTVERSION	LABEL	4.91	Instrument Version
COMMVERSION	LABEL	3.10	Communications Version
CPUPLDVERSION	LABEL	2.22	CPU PLD Version
CTRLPLDVERSION	LABEL	0.00	CTRL PLD Version
PSTATPLDVERSION	LABEL	0.00	PSTAT PLD Version
CURVE1	TABLE
	Pt	T	Vf	Im	Vu	Sig	Ach	IERange	Over	Temp
	#	s	V vs. Ref.	A	V	V	V	#	bits	deg C
	0	0.1	1.00293E-001	-1.84283E-005	0.00000E+000	9.99950E-002	0.00000E+000	9	...........	1467.79
	2	0.3	1.02290E-001	-1.76986E-005	0.00000E+000	1.01995E-001	0.00000E+000	9	...........	1467.79
	4	0.5	1.04292E-001	-1.75981E-005	0.00000E+000	1.03995E-001	0.00000E+000	9	...........	1467.79
	6	0.7	1.06292E-001	-1.75174E-005	0.00000E+000	1.05994E-001	0.00000E+000	9	...........	1468.06
	8	0.9	1.08294E-001	-1.74435E-005	0.00000E+000	1.07994E-001	0.00000E+000	9	...........	1468.06
	10	1.1	1.10295E-001	-1.73766E-005	0.00000E+000	1.09994E-001	0.00000E+000	9	...........	1468.06
	12	1.3	1.12294E-001	-1.73084E-005	0.00000E+000	1.11994E-001	0.00000E+000	9	...........	1468.06
	14	1.5	1.14308E-001	-1.72425E-005	0.00000E+000	1.14006E-001	0.00000E+000	9	...........	1468.06
	16	1.7	1.16306E-001	-1.71769E-005	0.00000E+000	1.16006E-001	0.00000E+000	9	...........	1467.43
	18	1.9	1.18308E-001	-1.71181E-005	0.00000E+000	1.18006E-001	0.00000E+000	9	...........	1467.43
	20	2.1	1.20311E-001	-1.70538E-005	0.00000E+000	1.20005E-001	0.00000E+000	9	...........	1467.43
	22	2.3	1.22310E-001	-1.69911E-005	0.00000E+000	1.22005E-001	0.00000E+000	9	...........	1467.43
	24	2.5	1.24312E-001	-1.69317E-005	0.00000E+000	1.24005E-001	0.00000E+000	9	...........	1467.43
	26	2.7	1.26314E-001	-1.68700E-005	0.00000E+000	1.26005E-001	0.00000E+000	9	...........	1467.43
	28	2.9	1.28316E-001	-1.68104E-005	0.00000E+000	1.28005E-001	0.00000E+000	9	...........	1467.43
	30	3.1	1.30315E-001	-1.67546E-005	0.00000E+000	1.30004E-001	0.00000E+000	9	...........	1467.43
	32	3.3	1.32316E-001	-1.66945E-005	0.00000E+000	1.32004E-001	0.00000E+000	9	...........	1467.43
	34	3.5	1.34315E-001	-1.66382E-005	0.00000E+000	1.34004E-001	0.00000E+000	9	...........	1467.43
	36	3.7	1.36314E-001	-1.65816E-005	0.00000E+000	1.36004E-001	0.00000E+000	9	...........	1467.43
	38	3.9	1.38317E-001	-1.65211E-005	0.00000E+000	1.38004E-001	0.00000E+000	9	...........	1467.43
	40	4.1	1.40317E-001	-1.64685E-005	0.00000E+000	1.40003E-001	0.00000E+000	9	...........	1467.43
	42	4.3	1.42316E-001	-1.64184E-005	0.00000E+000	1.42003E-001	0.00000E+000	9	...........	1467.43
	44	4.5	1.44316E-001	-1.63624E-005	0.00000E+000	1.44003E-001	0.00000E+000	9	...........	1467.43
	46	4.7	1.46319E-001	-1.63130E-005	0.00000E+000	1.46003E-001	0.00000E+000	9	...........	1467.88
	48	4.9	1.48318E-001	-1.62621E-005	0.00000E+000	1.48003E-001	0.00000E+000	9	...........	1467.88
	50	5.1	1.50317E-001	-1.62150E-005	0.00000E+000	1.50002E-001	0.00000E+000	9	...........	1467.88
	52	5.3	1.52316E-001	-1.61674E-005	0.00000E+000	1.52002E-001	0.00000E+000	9	...........	1467.88
	54	5.5	1.54318E-001	-1.61241E-005	0.00000E+000	1.54002E-001	0.00000E+000	9	...........	1467.88
	56	5.7	1.56319E-001	-1.60734E-005	0.00000E+000	1.56002E-001	0.00000E+000	9	...........	1467.79
	58	5.9	1.58319E-001	-1.60264E-005	0.00000E+000	1.58002E-001	0.00000E+000	9	...........	1467.79
	60	6.1	1.60320E-001	-1.59812E-005	0.00000E+000	1.60001E-001	0.00000E+000	9	...........	1467.79
	62	6.3	1.62321E-001	-1.59387E-005	0.00000E+000	1.62001E-001	0.00000E+000	9	...........	1467.79
	64	6.5	1.64321E-001	-1.58995E-005	0.00000E+000	1.64001E-001	0.00000E+000	9	...........	1467.79
	66	6.7	1.66323E-001	-1.58610E-005	0.00000E+000	1.66001E-001	0.00000E+000	9	...........	1467.52
	68	6.9	1.68322E-001	-1.58226E-005	0.00000E+000	1.68001E-001	0.00000E+000	9	...........	1467.52
	70	7.1	1.70326E-001	-1.57793E-005	0.00000E+000	1.70000E-001	0.00000E+000	9	...........	1467.52
	72	7.3	1.72325E-001	-1.57423E-005	0.00000E+000	1.72000E-001	0.00000E+000	9	...........	1467.52
	74	7.5	1.74325E-001	-1.57035E-005	0.00000E+000	1.74000E-001	0.00000E+000	9	...........	1467.52
	76	7.7	1.76325E-001	-1.56686E-005	0.00000E+000	1.76000E-001	0.00000E+000	9	...........	1467.88
	78	7.9	1.78328E-001	-1.56333E-005	0.00000E+000	1.78000E-001	0.00000E+000	9	...........	1467.88
	80	8.1	1.80329E-001	-1.55938E-005	0.00000E+000	1.79999E-001	0.00000E+000	9	...........	1467.88
	82	8.3	1.82330E-001	-1.55605E-005	0.00000E+000	1.81999E-001	0.00000E+000	9	...........	1467.88
	84	8.5	1.84329E-001	-1.55211E-005	0.00000E+000	1.83999E-001	0.00000E+000	9	...........	1467.88
	86	8.7	1.86332E-001	-1.54889E-005	0.00000E+000	1.85999E-001	0.00000E+000	9	...........	1467.52
	88	8.9	1.88331E-001	-1.54533E-005	0.00000E+000	1.87999E-001	0.00000E+000	9	...........	1467.52
	90	9.1	1.90331E-001	-1.54201E-005	0.00000E+000	1.89998E-001	0.00000E+000	9	...........	1467.52
	92	9.3	1.92332E-001	-1.53908E-005	0.00000E+000	1.91998E-001	0.00000E+000	9	...........	1467.52
	94	9.5	1.94331E-001	-1.53564E-005	0.00000E+000	1.93998E-001	0.00000E+000	9	...........	1467.52
	96	9.7	1.96333E-001	-1.53222E-005	0.00000E+000	1.95998E-001	0.00000E+000	9	...........	1467.97
	98	9.9	1.98334E-001	-1.52907E-005	0.00000E+000	1.97998E-001	0.00000E+000	9	...........	1467.97
	100	10.1	2.00336E-001	-1.52639E-005	0.00000E+000	1.99997E-001	0.00000E+000	9	...........	1467.97
	102	10.3	1.98338E-001	-1.65930E-005	0.00000E+000	1.97998E-001	0.00000E+000	9	...........	1467.97
[...]
	533	53.4	1.67328E-001	-1.86831E-005	0.00000E+000	1.67001E-001	0.00000E+000	9	...........	1467.52
	535	53.6	1.65329E-001	-1.87490E-005	0.00000E+000	1.65001E-001	0.00000E+000	9	...........	1467.79
	537	53.8	1.63326E-001	-1.88159E-005	0.00000E+000	1.63001E-001	0.00000E+000	9	...........	1467.79
	539	54	1.61324E-001	-1.88803E-005	0.00000E+000	1.61001E-001	0.00000E+000	9	...........	1467.79
	541	54.2	1.59324E-001	-1.89452E-005	0.00000E+000	1.59001E-001	0.00000E+000	9	...........	1467.79
	543	54.4	1.57322E-001	-1.90078E-005	0.00000E+000	1.57002E-001	0.00000E+000	9	...........	1467.79
	545	54.6	1.55322E-001	-1.90762E-005	0.00000E+000	1.55002E-001	0.00000E+000	9	...........	1467.52
	547	54.8	1.53320E-001	-1.91337E-005	0.00000E+000	1.53002E-001	0.00000E+000	9	...........	1467.52
	549	55	1.51323E-001	-1.91875E-005	0.00000E+000	1.51002E-001	0.00000E+000	9	...........	1467.52
	551	55.2	1.49325E-001	-1.92450E-005	0.00000E+000	1.49003E-001	0.00000E+000	9	...........	1467.52
	553	55.4	1.47324E-001	-1.93030E-005	0.00000E+000	1.47003E-001	0.00000E+000	9	...........	1467.52
	555	55.6	1.45324E-001	-1.93549E-005	0.00000E+000	1.45003E-001	0.00000E+000	9	...........	1467.79
	557	55.8	1.43322E-001	-1.94163E-005	0.00000E+000	1.43003E-001	0.00000E+000	9	...........	1467.79
	559	56	1.41325E-001	-1.94678E-005	0.00000E+000	1.41003E-001	0.00000E+000	9	...........	1467.79
	561	56.2	1.39323E-001	-1.95200E-005	0.00000E+000	1.39004E-001	0.00000E+000	9	...........	1467.79
	563	56.4	1.37321E-001	-1.95721E-005	0.00000E+000	1.37004E-001	0.00000E+000	9	...........	1467.79
	565	56.6	1.35321E-001	-1.96278E-005	0.00000E+000	1.35004E-001	0.00000E+000	9	...........	1467.52
	567	56.8	1.33320E-001	-1.96794E-005	0.00000E+000	1.33004E-001	0.00000E+000	9	...........	1467.52
	569	57	1.31319E-001	-1.97350E-005	0.00000E+000	1.31004E-001	0.00000E+000	9	...........	1467.52
	571	57.2	1.29319E-001	-1.97841E-005	0.00000E+000	1.29005E-001	0.00000E+000	9	...........	1467.52
	573	57.4	1.27315E-001	-1.98374E-005	0.00000E+000	1.27005E-001	0.00000E+000	9	...........	1467.52
	575	57.6	1.25317E-001	-1.98911E-005	0.00000E+000	1.25005E-001	0.00000E+000	9	...........	1467.88
	577	57.8	1.23316E-001	-1.99440E-005	0.00000E+000	1.23005E-001	0.00000E+000	9	...........	1467.88
	579	58	1.21316E-001	-1.99947E-005	0.00000E+000	1.21005E-001	0.00000E+000	9	...........	1467.88
	581	58.2	1.19316E-001	-2.00517E-005	0.00000E+000	1.19006E-001	0.00000E+000	9	...........	1467.88
	583	58.4	1.17311E-001	-2.01043E-005	0.00000E+000	1.17006E-001	0.00000E+000	9	...........	1467.88
	585	58.6	1.15314E-001	-2.01547E-005	0.00000E+000	1.15006E-001	0.00000E+000	9	...........	1467.52
	587	58.8	1.13314E-001	-2.02061E-005	0.00000E+000	1.13006E-001	0.00000E+000	9	...........	1467.52
	589	59	1.11297E-001	-2.02569E-005	0.00000E+000	1.10994E-001	0.00000E+000	9	...........	1467.52
	591	59.2	1.09299E-001	-2.03117E-005	0.00000E+000	1.08994E-001	0.00000E+000	9	...........	1467.52
	593	59.4	1.07296E-001	-2.03634E-005	0.00000E+000	1.06994E-001	0.00000E+000	9	...........	1467.52
	595	59.6	1.05293E-001	-2.04169E-005	0.00000E+000	1.04994E-001	0.00000E+000	9	...........	1467.88
	597	59.8	1.03295E-001	-2.04698E-005	0.00000E+000	1.02995E-001	0.00000E+000	9	...........	1467.88
	599	60	1.01295E-001	-2.05250E-005	0.00000E+000	1.00995E-001	0.00000E+000	9	...........	1467.88
	600	60.1	1.00294E-001	-2.05488E-005	0.00000E+000	9.99950E-002	0.00000E+000	9	...........	1467.88
CURVE4	TABLE
	Pt	T	Vf	Im	Vu	Sig	Ach	IERange	Over	Temp
	#	s	V vs. Ref.	A	V	V	V	#	bits	deg C
	601	60.2	1.00291E-001	-2.00185E-005	0.00000E+000	9.99950E-002	0.00000E+000	9	...........	1467.88