Folder: gamry_post_processing_/input (part 19)

File: CV_ECSA_#2_#2.DTA
EXPLAIN
TAG	CV
TITLE	LABEL	ECSA	Test Identifier
DATE	LABEL	17.7.2024	Date
TIME	LABEL	13:19:25	Time
NOTES	NOTES	1	Notes...

PSTAT	PSTAT	IFC1010-34090	Potentiostat
VINIT	POTEN	1.00000E-001	F	A Potential (V)
VLIMIT1	POTEN	2.00000E-001	F	A Potential (V)
VLIMIT2	POTEN	1.00000E-001	F	A Potential (V)
VFINAL	POTEN	1.00000E-001	F	A Potential (V)
SCANRATE	QUANT	2.00000E+001	A Real Number
STEPSIZE	QUANT	1.00000E+000	Step Size (mV)
CYCLES	IQUANT	3	Cycles (#)
IMODE	SELECTOR	1	I/E Range Mode
IRANGE	QUANT	3.00000E-001	Max Current (mA)
AREA	QUANT	1.00000E+000	Sample Area (cm^2)
EQDELAY	QUANT	0.00000E+000	Equil. Time (s)
IRCOMP	SELECTOR	0	IRComp
PFCOR	QUANT	5.00000E+001	PF Corr. (ohm)
SAMPLINGMODE	SELECTOR	2	Sampling Mode
EOC	QUANT	0.7205974	Open Circuit (V)
ELECTRODETYPE	SELECTOR	0	Electrode Type
STRIPPING	TOGGLE	F	Used for Stripping
SEQUENCER	TOGGLE	TRUE	Run as Sequence
PSTATMODEL	IQUANT	64	Pstat Model
PSTATSECTION	LABEL	IFC1010-34090	Pstat Section
PSTATSERIALNO	LABEL	34090	Pstat Serial Number
CTRLMODE	IQUANT	1	Control Mode
ELECTROMETER	IQUANT	0	RE=0 or CS=1
IESTAB	IQUANT	2	I/E Stability
CASPEED	IQUANT	4	Control Amp Speed
CONVENTION	IQUANT	1	Current Convention
ICHRANGE	IQUANT	2	Ich Range
ICHRANGEMODE	TOGGLE	F	Ich Auto Range
ICHOFFSETENABLE	TOGGLE	F	Ich Offset Enable
ICHOFFSET	QUANT	0	Ich Offset (V)
ICHFILTER	IQUANT	3	Ich Filter
VCHRANGE	IQUANT	1	Vch Range
VCHRANGEMODE	TOGGLE	F	Vch Auto Range
VCHOFFSETENABLE	TOGGLE	F	Vch Offset Enable
VCHOFFSET	QUANT	0	Vch Offset (V)
VCHFILTER	IQUANT	3	Vch Filter
IERANGELOWERLIMIT	IQUANT	4	I/E Range Lower Limit
IERANGEMODE	TOGGLE	F	I/E AutoRange
IERANGE	IQUANT	9	I/E Range
ACHSELECT	IQUANT	0	Ach Select
ACHRANGE	IQUANT	2	Ach Range
ACHOFFSETENABLE	TOGGLE	F	Ach Offset Enable
ACHOFFSET	QUANT	0	Ach Offset (V)
ACHFILTER	IQUANT	1	Ach Filter
SENSECABLEID	IQUANT	13	Sense Cable ID
PWRCABLEID	IQUANT	13	Power Cable ID
DCCALDATE	LABEL	1/30/2024	DC Calibration Date
ACCALDATE	LABEL	1/8/2024	AC Calibration Date
FRAMEWORKVERSION	LABEL	7.10.3	Framework Version
INSTRUMENTVERSION	LABEL	4.91	Instrument Version
COMMVERSION	LABEL	3.10	Communications Version
CPUPLDVERSION	LABEL	2.22	CPU PLD Version
CTRLPLDVERSION	LABEL	0.00	CTRL PLD Version
PSTATPLDVERSION	LABEL	0.00	PSTAT PLD Version
CURVE1	TABLE
	Pt	T	Vf	Im	Vu	Sig	Ach	IERange	Over	Temp
	#	s	V vs. Ref.	A	V	V	V	#	bits	deg C
	0	0.05	1.00292E-001	-2.01604E-005	0.00000E+000	9.99950E-002	0.00000E+000	9	...........	1467.88
	2	0.15	1.02289E-001	-1.88523E-005	0.00000E+000	1.01995E-001	0.00000E+000	9	...........	1467.88
	4	0.25	1.04287E-001	-1.86625E-005	0.00000E+000	1.03995E-001	0.00000E+000	9	...........	1467.80
	6	0.35	1.06289E-001	-1.84941E-005	0.00000E+000	1.05994E-001	0.00000E+000	9	...........	1467.61
	8	0.45	1.08289E-001	-1.83581E-005	0.00000E+000	1.07994E-001	0.00000E+000	9	...........	1467.61
	10	0.55	1.10292E-001	-1.82225E-005	0.00000E+000	1.09994E-001	0.00000E+000	9	...........	1467.61
	12	0.65	1.12292E-001	-1.80911E-005	0.00000E+000	1.11994E-001	0.00000E+000	9	...........	1467.61
	14	0.75	1.14306E-001	-1.79707E-005	0.00000E+000	1.14006E-001	0.00000E+000	9	...........	1467.61
	16	0.85	1.16306E-001	-1.78525E-005	0.00000E+000	1.16006E-001	0.00000E+000	9	...........	1467.61
	18	0.95	1.18306E-001	-1.77393E-005	0.00000E+000	1.18006E-001	0.00000E+000	9	...........	1467.61
	20	1.05	1.20308E-001	-1.76309E-005	0.00000E+000	1.20005E-001	0.00000E+000	9	...........	1467.61
	22	1.15	1.22308E-001	-1.75186E-005	0.00000E+000	1.22005E-001	0.00000E+000	9	...........	1467.61
	24	1.25	1.24309E-001	-1.74165E-005	0.00000E+000	1.24005E-001	0.00000E+000	9	...........	1467.70
	26	1.35	1.26310E-001	-1.73165E-005	0.00000E+000	1.26005E-001	0.00000E+000	9	...........	1467.88
	28	1.45	1.28313E-001	-1.72205E-005	0.00000E+000	1.28005E-001	0.00000E+000	9	...........	1467.88
	30	1.55	1.30311E-001	-1.71247E-005	0.00000E+000	1.30004E-001	0.00000E+000	9	...........	1467.88
	32	1.65	1.32315E-001	-1.70288E-005	0.00000E+000	1.32004E-001	0.00000E+000	9	...........	1467.88
	34	1.75	1.34314E-001	-1.69342E-005	0.00000E+000	1.34004E-001	0.00000E+000	9	...........	1467.88
	36	1.85	1.36314E-001	-1.68521E-005	0.00000E+000	1.36004E-001	0.00000E+000	9	...........	1467.88
	38	1.95	1.38315E-001	-1.67602E-005	0.00000E+000	1.38004E-001	0.00000E+000	9	...........	1467.88
	40	2.05	1.40317E-001	-1.66727E-005	0.00000E+000	1.40003E-001	0.00000E+000	9	...........	1467.88
	42	2.15	1.42316E-001	-1.65908E-005	0.00000E+000	1.42003E-001	0.00000E+000	9	...........	1467.88
	44	2.25	1.44314E-001	-1.65031E-005	0.00000E+000	1.44003E-001	0.00000E+000	9	...........	1467.88
	46	2.35	1.46317E-001	-1.64257E-005	0.00000E+000	1.46003E-001	0.00000E+000	9	...........	1467.88
	48	2.45	1.48316E-001	-1.63465E-005	0.00000E+000	1.48003E-001	0.00000E+000	9	...........	1467.88
	50	2.55	1.50313E-001	-1.62645E-005	0.00000E+000	1.50002E-001	0.00000E+000	9	...........	1467.88
	52	2.65	1.52312E-001	-1.61809E-005	0.00000E+000	1.52002E-001	0.00000E+000	9	...........	1467.88
	54	2.75	1.54316E-001	-1.61034E-005	0.00000E+000	1.54002E-001	0.00000E+000	9	...........	1467.88
	56	2.85	1.56317E-001	-1.60311E-005	0.00000E+000	1.56002E-001	0.00000E+000	9	...........	1467.88
	58	2.95	1.58316E-001	-1.59536E-005	0.00000E+000	1.58002E-001	0.00000E+000	9	...........	1467.88
	60	3.05	1.60319E-001	-1.58805E-005	0.00000E+000	1.60001E-001	0.00000E+000	9	...........	1467.88
	62	3.15	1.62316E-001	-1.58100E-005	0.00000E+000	1.62001E-001	0.00000E+000	9	...........	1467.88
	64	3.25	1.64318E-001	-1.57359E-005	0.00000E+000	1.64001E-001	0.00000E+000	9	...........	1467.76
	66	3.35	1.66320E-001	-1.56593E-005	0.00000E+000	1.66001E-001	0.00000E+000	9	...........	1467.52
	68	3.45	1.68318E-001	-1.55901E-005	0.00000E+000	1.68001E-001	0.00000E+000	9	...........	1467.52
	70	3.55	1.70322E-001	-1.55227E-005	0.00000E+000	1.70000E-001	0.00000E+000	9	...........	1467.52
	72	3.65	1.72323E-001	-1.54547E-005	0.00000E+000	1.72000E-001	0.00000E+000	9	...........	1467.52
	74	3.75	1.74324E-001	-1.53881E-005	0.00000E+000	1.74000E-001	0.00000E+000	9	...........	1467.52
	76	3.85	1.76320E-001	-1.53230E-005	0.00000E+000	1.76000E-001	0.00000E+000	9	...........	1467.52
	78	3.95	1.78325E-001	-1.52517E-005	0.00000E+000	1.78000E-001	0.00000E+000	9	...........	1467.52
	80	4.05	1.80326E-001	-1.51831E-005	0.00000E+000	1.79999E-001	0.00000E+000	9	...........	1467.52
	82	4.15	1.82329E-001	-1.51221E-005	0.00000E+000	1.81999E-001	0.00000E+000	9	...........	1467.52
	84	4.25	1.84327E-001	-1.50518E-005	0.00000E+000	1.83999E-001	0.00000E+000	9	...........	1467.49
	86	4.35	1.86329E-001	-1.49853E-005	0.00000E+000	1.85999E-001	0.00000E+000	9	...........	1467.43
	88	4.45	1.88329E-001	-1.49158E-005	0.00000E+000	1.87999E-001	0.00000E+000	9	...........	1467.43
	90	4.55	1.90330E-001	-1.48486E-005	0.00000E+000	1.89998E-001	0.00000E+000	9	...........	1467.43
	92	4.65	1.92331E-001	-1.47921E-005	0.00000E+000	1.91998E-001	0.00000E+000	9	...........	1467.43
	94	4.75	1.94328E-001	-1.47200E-005	0.00000E+000	1.93998E-001	0.00000E+000	9	...........	1467.43
	96	4.85	1.96330E-001	-1.46491E-005	0.00000E+000	1.95998E-001	0.00000E+000	9	...........	1467.43
	98	4.95	1.98330E-001	-1.45871E-005	0.00000E+000	1.97998E-001	0.00000E+000	9	...........	1467.43
	100	5.05	2.00333E-001	-1.45240E-005	0.00000E+000	1.99997E-001	0.00000E+000	9	...........	1467.43
[...]
	533	26.7	1.67328E-001	-1.87723E-005	0.00000E+000	1.67001E-001	0.00000E+000	9	...........	1467.97
	535	26.8	1.65328E-001	-1.88622E-005	0.00000E+000	1.65001E-001	0.00000E+000	9	...........	1467.97
	537	26.9	1.63327E-001	-1.89473E-005	0.00000E+000	1.63001E-001	0.00000E+000	9	...........	1467.97
	539	27	1.61328E-001	-1.90277E-005	0.00000E+000	1.61001E-001	0.00000E+000	9	...........	1467.97
	541	27.1	1.59327E-001	-1.91127E-005	0.00000E+000	1.59001E-001	0.00000E+000	9	...........	1467.97
	543	27.2	1.57323E-001	-1.91926E-005	0.00000E+000	1.57002E-001	0.00000E+000	9	...........	1467.97
	545	27.3	1.55325E-001	-1.92697E-005	0.00000E+000	1.55002E-001	0.00000E+000	9	...........	1467.43
	547	27.4	1.53323E-001	-1.93467E-005	0.00000E+000	1.53002E-001	0.00000E+000	9	...........	1467.43
	549	27.5	1.51324E-001	-1.94235E-005	0.00000E+000	1.51002E-001	0.00000E+000	9	...........	1467.43
	551	27.6	1.49326E-001	-1.94936E-005	0.00000E+000	1.49003E-001	0.00000E+000	9	...........	1467.43
	553	27.7	1.47327E-001	-1.95773E-005	0.00000E+000	1.47003E-001	0.00000E+000	9	...........	1467.43
	555	27.8	1.45325E-001	-1.96515E-005	0.00000E+000	1.45003E-001	0.00000E+000	9	...........	1467.43
	557	27.9	1.43320E-001	-1.97327E-005	0.00000E+000	1.43003E-001	0.00000E+000	9	...........	1467.43
	559	28	1.41324E-001	-1.98036E-005	0.00000E+000	1.41003E-001	0.00000E+000	9	...........	1467.43
	561	28.1	1.39323E-001	-1.98732E-005	0.00000E+000	1.39004E-001	0.00000E+000	9	...........	1467.43
	563	28.2	1.37323E-001	-1.99525E-005	0.00000E+000	1.37004E-001	0.00000E+000	9	...........	1467.43
	565	28.3	1.35323E-001	-2.00204E-005	0.00000E+000	1.35004E-001	0.00000E+000	9	...........	1467.88
	567	28.4	1.33321E-001	-2.01040E-005	0.00000E+000	1.33004E-001	0.00000E+000	9	...........	1467.88
	569	28.5	1.31320E-001	-2.01804E-005	0.00000E+000	1.31004E-001	0.00000E+000	9	...........	1467.88
	571	28.6	1.29321E-001	-2.02532E-005	0.00000E+000	1.29005E-001	0.00000E+000	9	...........	1467.88
	573	28.7	1.27317E-001	-2.03274E-005	0.00000E+000	1.27005E-001	0.00000E+000	9	...........	1467.88
	575	28.8	1.25317E-001	-2.04004E-005	0.00000E+000	1.25005E-001	0.00000E+000	9	...........	1467.88
	577	28.9	1.23320E-001	-2.04699E-005	0.00000E+000	1.23005E-001	0.00000E+000	9	...........	1467.88
	579	29	1.21317E-001	-2.05485E-005	0.00000E+000	1.21005E-001	0.00000E+000	9	...........	1467.88
	581	29.1	1.19318E-001	-2.06214E-005	0.00000E+000	1.19006E-001	0.00000E+000	9	...........	1467.88
	583	29.2	1.17313E-001	-2.06981E-005	0.00000E+000	1.17006E-001	0.00000E+000	9	...........	1467.88
	585	29.3	1.15313E-001	-2.07728E-005	0.00000E+000	1.15006E-001	0.00000E+000	9	...........	1467.43
	587	29.4	1.13314E-001	-2.08495E-005	0.00000E+000	1.13006E-001	0.00000E+000	9	...........	1467.43
	589	29.5	1.11297E-001	-2.09264E-005	0.00000E+000	1.10994E-001	0.00000E+000	9	...........	1467.43
	591	29.6	1.09301E-001	-2.10058E-005	0.00000E+000	1.08994E-001	0.00000E+000	9	...........	1467.43
	593	29.7	1.07298E-001	-2.10795E-005	0.00000E+000	1.06994E-001	0.00000E+000	9	...........	1467.43
	595	29.8	1.05297E-001	-2.11629E-005	0.00000E+000	1.04994E-001	0.00000E+000	9	...........	1467.43
	597	29.9	1.03297E-001	-2.12377E-005	0.00000E+000	1.02995E-001	0.00000E+000	9	...........	1467.43
	599	30	1.01298E-001	-2.13169E-005	0.00000E+000	1.00995E-001	0.00000E+000	9	...........	1467.43
	600	30.05	1.00297E-001	-2.13847E-005	0.00000E+000	9.99950E-002	0.00000E+000	9	...........	1467.43
CURVE4	TABLE
	Pt	T	Vf	Im	Vu	Sig	Ach	IERange	Over	Temp
	#	s	V vs. Ref.	A	V	V	V	#	bits	deg C
	601	30.1	1.00293E-001	-2.04052E-005	0.00000E+000	9.99950E-002	0.00000E+000	9	...........	1467.43

File: CV_ECSA_#2_#3.DTA
EXPLAIN
TAG	CV
TITLE	LABEL	ECSA	Test Identifier
DATE	LABEL	17.7.2024	Date
TIME	LABEL	13:19:55	Time
NOTES	NOTES	1	Notes...

PSTAT	PSTAT	IFC1010-34090	Potentiostat
VINIT	POTEN	1.00000E-001	F	A Potential (V)
VLIMIT1	POTEN	2.00000E-001	F	A Potential (V)
VLIMIT2	POTEN	1.00000E-001	F	A Potential (V)
VFINAL	POTEN	1.00000E-001	F	A Potential (V)
SCANRATE	QUANT	3.00000E+001	A Real Number
STEPSIZE	QUANT	1.00000E+000	Step Size (mV)
CYCLES	IQUANT	3	Cycles (#)
IMODE	SELECTOR	1	I/E Range Mode
IRANGE	QUANT	3.00000E-001	Max Current (mA)
AREA	QUANT	1.00000E+000	Sample Area (cm^2)
EQDELAY	QUANT	0.00000E+000	Equil. Time (s)
IRCOMP	SELECTOR	0	IRComp
PFCOR	QUANT	5.00000E+001	PF Corr. (ohm)
SAMPLINGMODE	SELECTOR	2	Sampling Mode
EOC	QUANT	0.7205974	Open Circuit (V)
ELECTRODETYPE	SELECTOR	0	Electrode Type
STRIPPING	TOGGLE	F	Used for Stripping
SEQUENCER	TOGGLE	TRUE	Run as Sequence
PSTATMODEL	IQUANT	64	Pstat Model
PSTATSECTION	LABEL	IFC1010-34090	Pstat Section
PSTATSERIALNO	LABEL	34090	Pstat Serial Number
CTRLMODE	IQUANT	1	Control Mode
ELECTROMETER	IQUANT	0	RE=0 or CS=1
IESTAB	IQUANT	2	I/E Stability
CASPEED	IQUANT	4	Control Amp Speed
CONVENTION	IQUANT	1	Current Convention
ICHRANGE	IQUANT	2	Ich Range
ICHRANGEMODE	TOGGLE	F	Ich Auto Range
ICHOFFSETENABLE	TOGGLE	F	Ich Offset Enable
ICHOFFSET	QUANT	0	Ich Offset (V)
ICHFILTER	IQUANT	3	Ich Filter
VCHRANGE	IQUANT	1	Vch Range
VCHRANGEMODE	TOGGLE	F	Vch Auto Range
VCHOFFSETENABLE	TOGGLE	F	Vch Offset Enable
VCHOFFSET	QUANT	0	Vch Offset (V)
VCHFILTER	IQUANT	3	Vch Filter
IERANGELOWERLIMIT	IQUANT	4	I/E Range Lower Limit
IERANGEMODE	TOGGLE	F	I/E AutoRange
IERANGE	IQUANT	9	I/E Range
ACHSELECT	IQUANT	0	Ach Select
ACHRANGE	IQUANT	2	Ach Range
ACHOFFSETENABLE	TOGGLE	F	Ach Offset Enable
ACHOFFSET	QUANT	0	Ach Offset (V)
ACHFILTER	IQUANT	1	Ach Filter
SENSECABLEID	IQUANT	13	Sense Cable ID
PWRCABLEID	IQUANT	13	Power Cable ID
DCCALDATE	LABEL	1/30/2024	DC Calibration Date
ACCALDATE	LABEL	1/8/2024	AC Calibration Date
FRAMEWORKVERSION	LABEL	7.10.3	Framework Version
INSTRUMENTVERSION	LABEL	4.91	Instrument Version
COMMVERSION	LABEL	3.10	Communications Version
CPUPLDVERSION	LABEL	2.22	CPU PLD Version
CTRLPLDVERSION	LABEL	0.00	CTRL PLD Version
PSTATPLDVERSION	LABEL	0.00	PSTAT PLD Version
CURVE1	TABLE
	Pt	T	Vf	Im	Vu	Sig	Ach	IERange	Over	Temp
	#	s	V vs. Ref.	A	V	V	V	#	bits	deg C
	0	0.033333	1.00295E-001	-2.05261E-005	0.00000E+000	9.99950E-002	0.00000E+000	9	...........	1467.43
	2	0.1	1.02289E-001	-1.87624E-005	0.00000E+000	1.01995E-001	0.00000E+000	9	...........	1467.88
	4	0.166667	1.04288E-001	-1.85709E-005	0.00000E+000	1.03995E-001	0.00000E+000	9	...........	1467.88
	6	0.233333	1.06289E-001	-1.83559E-005	0.00000E+000	1.05994E-001	0.00000E+000	9	...........	1467.88
	8	0.3	1.08292E-001	-1.81875E-005	0.00000E+000	1.07994E-001	0.00000E+000	9	...........	1467.88
	10	0.366667	1.10294E-001	-1.80711E-005	0.00000E+000	1.09994E-001	0.00000E+000	9	...........	1467.88
	12	0.433333	1.12292E-001	-1.78923E-005	0.00000E+000	1.11994E-001	0.00000E+000	9	...........	1467.88
	14	0.5	1.14305E-001	-1.77555E-005	0.00000E+000	1.14006E-001	0.00000E+000	9	...........	1467.88
	16	0.566667	1.16306E-001	-1.76567E-005	0.00000E+000	1.16006E-001	0.00000E+000	9	...........	1467.88
	18	0.633333	1.18305E-001	-1.74948E-005	0.00000E+000	1.18006E-001	0.00000E+000	9	...........	1467.88
	20	0.7	1.20307E-001	-1.73709E-005	0.00000E+000	1.20005E-001	0.00000E+000	9	...........	1467.88
	22	0.766667	1.22308E-001	-1.72833E-005	0.00000E+000	1.22005E-001	0.00000E+000	9	...........	1467.88
	24	0.833333	1.24310E-001	-1.71342E-005	0.00000E+000	1.24005E-001	0.00000E+000	9	...........	1467.88
	26	0.9	1.26312E-001	-1.70131E-005	0.00000E+000	1.26005E-001	0.00000E+000	9	...........	1467.88
	28	0.96667	1.28314E-001	-1.69321E-005	0.00000E+000	1.28005E-001	0.00000E+000	9	...........	1467.88
	30	1.03333	1.30312E-001	-1.67938E-005	0.00000E+000	1.30004E-001	0.00000E+000	9	...........	1467.88
	32	1.1	1.32314E-001	-1.66809E-005	0.00000E+000	1.32004E-001	0.00000E+000	9	...........	1467.61
	34	1.16667	1.34314E-001	-1.66037E-005	0.00000E+000	1.34004E-001	0.00000E+000	9	...........	1467.61
	36	1.23333	1.36313E-001	-1.64646E-005	0.00000E+000	1.36004E-001	0.00000E+000	9	...........	1467.61
	38	1.3	1.38316E-001	-1.63640E-005	0.00000E+000	1.38004E-001	0.00000E+000	9	...........	1467.61
	40	1.36667	1.40315E-001	-1.62926E-005	0.00000E+000	1.40003E-001	0.00000E+000	9	...........	1467.61
	42	1.43333	1.42315E-001	-1.61543E-005	0.00000E+000	1.42003E-001	0.00000E+000	9	...........	1467.61
	44	1.5	1.44314E-001	-1.60643E-005	0.00000E+000	1.44003E-001	0.00000E+000	9	...........	1467.61
	46	1.56667	1.46318E-001	-1.59952E-005	0.00000E+000	1.46003E-001	0.00000E+000	9	...........	1467.61
	48	1.63333	1.48316E-001	-1.58638E-005	0.00000E+000	1.48003E-001	0.00000E+000	9	...........	1467.61
	50	1.7	1.50315E-001	-1.57859E-005	0.00000E+000	1.50002E-001	0.00000E+000	9	...........	1467.61
	52	1.76667	1.52315E-001	-1.57145E-005	0.00000E+000	1.52002E-001	0.00000E+000	9	...........	1467.61
	54	1.83333	1.54317E-001	-1.55800E-005	0.00000E+000	1.54002E-001	0.00000E+000	9	...........	1467.61
	56	1.9	1.56316E-001	-1.55064E-005	0.00000E+000	1.56002E-001	0.00000E+000	9	...........	1467.61
	58	1.96667	1.58316E-001	-1.54456E-005	0.00000E+000	1.58002E-001	0.00000E+000	9	...........	1467.61
	60	2.03333	1.60320E-001	-1.53184E-005	0.00000E+000	1.60001E-001	0.00000E+000	9	...........	1467.61
	62	2.1	1.62319E-001	-1.52455E-005	0.00000E+000	1.62001E-001	0.00000E+000	9	...........	1467.43
	64	2.16667	1.64319E-001	-1.51753E-005	0.00000E+000	1.64001E-001	0.00000E+000	9	...........	1467.43
	66	2.23333	1.66323E-001	-1.50489E-005	0.00000E+000	1.66001E-001	0.00000E+000	9	...........	1467.43
	68	2.3	1.68322E-001	-1.49834E-005	0.00000E+000	1.68001E-001	0.00000E+000	9	...........	1467.43
	70	2.36667	1.70325E-001	-1.49110E-005	0.00000E+000	1.70000E-001	0.00000E+000	9	...........	1467.43
	72	2.43333	1.72324E-001	-1.47879E-005	0.00000E+000	1.72000E-001	0.00000E+000	9	...........	1467.43
	74	2.5	1.74325E-001	-1.47241E-005	0.00000E+000	1.74000E-001	0.00000E+000	9	...........	1467.43
	76	2.56667	1.76323E-001	-1.46555E-005	0.00000E+000	1.76000E-001	0.00000E+000	9	...........	1467.43
	78	2.63333	1.78326E-001	-1.45340E-005	0.00000E+000	1.78000E-001	0.00000E+000	9	...........	1467.43
	80	2.7	1.80328E-001	-1.44692E-005	0.00000E+000	1.79999E-001	0.00000E+000	9	...........	1467.43
	82	2.76667	1.82327E-001	-1.44040E-005	0.00000E+000	1.81999E-001	0.00000E+000	9	...........	1467.43
	84	2.83333	1.84329E-001	-1.42741E-005	0.00000E+000	1.83999E-001	0.00000E+000	9	...........	1467.43
	86	2.9	1.86329E-001	-1.42146E-005	0.00000E+000	1.85999E-001	0.00000E+000	9	...........	1467.43
	88	2.96667	1.88329E-001	-1.41431E-005	0.00000E+000	1.87999E-001	0.00000E+000	9	...........	1467.43
	90	3.03333	1.90329E-001	-1.40161E-005	0.00000E+000	1.89998E-001	0.00000E+000	9	...........	1467.43
	92	3.1	1.92330E-001	-1.39565E-005	0.00000E+000	1.91998E-001	0.00000E+000	9	...........	1467.43
	94	3.16667	1.94330E-001	-1.38814E-005	0.00000E+000	1.93998E-001	0.00000E+000	9	...........	1467.43
	96	3.23333	1.96331E-001	-1.37552E-005	0.00000E+000	1.95998E-001	0.00000E+000	9	...........	1467.43
	98	3.3	1.98332E-001	-1.36911E-005	0.00000E+000	1.97998E-001	0.00000E+000	9	...........	1467.43
[...]
	535	17.8667	1.65335E-001	-1.90156E-005	0.00000E+000	1.65001E-001	0.00000E+000	9	...........	1467.70
	537	17.9333	1.63331E-001	-1.91389E-005	0.00000E+000	1.63001E-001	0.00000E+000	9	...........	1467.70
	539	18	1.61332E-001	-1.91916E-005	0.00000E+000	1.61001E-001	0.00000E+000	9	...........	1467.70
	541	18.0667	1.59333E-001	-1.92880E-005	0.00000E+000	1.59001E-001	0.00000E+000	9	...........	1467.57
	543	18.1333	1.57327E-001	-1.94119E-005	0.00000E+000	1.57002E-001	0.00000E+000	9	...........	1467.43
	545	18.2	1.55328E-001	-1.94638E-005	0.00000E+000	1.55002E-001	0.00000E+000	9	...........	1467.43
	547	18.2667	1.53327E-001	-1.95537E-005	0.00000E+000	1.53002E-001	0.00000E+000	9	...........	1467.43
	549	18.3333	1.51329E-001	-1.96725E-005	0.00000E+000	1.51002E-001	0.00000E+000	9	...........	1467.43
	551	18.4	1.49331E-001	-1.97163E-005	0.00000E+000	1.49003E-001	0.00000E+000	9	...........	1467.43
	553	18.4667	1.47331E-001	-1.98165E-005	0.00000E+000	1.47003E-001	0.00000E+000	9	...........	1467.43
	555	18.5333	1.45330E-001	-1.99340E-005	0.00000E+000	1.45003E-001	0.00000E+000	9	...........	1467.43
	557	18.6	1.43328E-001	-1.99818E-005	0.00000E+000	1.43003E-001	0.00000E+000	9	...........	1467.43
	559	18.6667	1.41331E-001	-2.00743E-005	0.00000E+000	1.41003E-001	0.00000E+000	9	...........	1467.43
	561	18.7333	1.39329E-001	-2.01904E-005	0.00000E+000	1.39004E-001	0.00000E+000	9	...........	1467.43
	563	18.8	1.37328E-001	-2.02423E-005	0.00000E+000	1.37004E-001	0.00000E+000	9	...........	1467.43
	565	18.8667	1.35328E-001	-2.03289E-005	0.00000E+000	1.35004E-001	0.00000E+000	9	...........	1467.43
	567	18.9333	1.33327E-001	-2.04460E-005	0.00000E+000	1.33004E-001	0.00000E+000	9	...........	1467.43
	569	19	1.31325E-001	-2.04929E-005	0.00000E+000	1.31004E-001	0.00000E+000	9	...........	1467.43
	571	19.0667	1.29328E-001	-2.05869E-005	0.00000E+000	1.29005E-001	0.00000E+000	9	...........	1467.57
	573	19.1333	1.27324E-001	-2.07017E-005	0.00000E+000	1.27005E-001	0.00000E+000	9	...........	1467.70
	575	19.2	1.25322E-001	-2.07556E-005	0.00000E+000	1.25005E-001	0.00000E+000	9	...........	1467.70
	577	19.2667	1.23323E-001	-2.08526E-005	0.00000E+000	1.23005E-001	0.00000E+000	9	...........	1467.70
	579	19.3333	1.21322E-001	-2.09626E-005	0.00000E+000	1.21005E-001	0.00000E+000	9	...........	1467.70
	581	19.4	1.19320E-001	-2.10188E-005	0.00000E+000	1.19006E-001	0.00000E+000	9	...........	1467.70
	583	19.4667	1.17318E-001	-2.11194E-005	0.00000E+000	1.17006E-001	0.00000E+000	9	...........	1467.70
	585	19.5333	1.15321E-001	-2.12300E-005	0.00000E+000	1.15006E-001	0.00000E+000	9	...........	1467.70
	587	19.6	1.13319E-001	-2.12836E-005	0.00000E+000	1.13006E-001	0.00000E+000	9	...........	1467.70
	589	19.6667	1.11303E-001	-2.13937E-005	0.00000E+000	1.10994E-001	0.00000E+000	9	...........	1467.70
	591	19.7333	1.09306E-001	-2.15057E-005	0.00000E+000	1.08994E-001	0.00000E+000	9	...........	1467.70
	593	19.8	1.07303E-001	-2.15581E-005	0.00000E+000	1.06994E-001	0.00000E+000	9	...........	1467.70
	595	19.8667	1.05302E-001	-2.16789E-005	0.00000E+000	1.04994E-001	0.00000E+000	9	...........	1467.70
	597	19.9333	1.03305E-001	-2.17882E-005	0.00000E+000	1.02995E-001	0.00000E+000	9	...........	1467.70
	599	20	1.01303E-001	-2.18511E-005	0.00000E+000	1.00995E-001	0.00000E+000	9	...........	1467.70
	600	20.0333	1.00302E-001	-2.19336E-005	0.00000E+000	9.99950E-002	0.00000E+000	9	...........	1467.70
CURVE4	TABLE
	Pt	T	Vf	Im	Vu	Sig	Ach	IERange	Over	Temp
	#	s	V vs. Ref.	A	V	V	V	#	bits	deg C
	601	20.0667	1.00295E-001	-2.05718E-005	0.00000E+000	9.99950E-002	0.00000E+000	9	...........	1467.56