Folder: gamry_post_processing_/input (part 23)

File: CV_ECSA_#2_#10.DTA
EXPLAIN
TAG	CV
TITLE	LABEL	ECSA	Test Identifier
DATE	LABEL	17.7.2024	Date
TIME	LABEL	13:21:15	Time
NOTES	NOTES	1	Notes...

PSTAT	PSTAT	IFC1010-34090	Potentiostat
VINIT	POTEN	1.00000E-001	F	A Potential (V)
VLIMIT1	POTEN	2.00000E-001	F	A Potential (V)
VLIMIT2	POTEN	1.00000E-001	F	A Potential (V)
VFINAL	POTEN	1.00000E-001	F	A Potential (V)
SCANRATE	QUANT	9.99548E+001	A Real Number
STEPSIZE	QUANT	1.00000E+000	Step Size (mV)
CYCLES	IQUANT	3	Cycles (#)
IMODE	SELECTOR	1	I/E Range Mode
IRANGE	QUANT	3.00000E-001	Max Current (mA)
AREA	QUANT	1.00000E+000	Sample Area (cm^2)
EQDELAY	QUANT	0.00000E+000	Equil. Time (s)
IRCOMP	SELECTOR	0	IRComp
PFCOR	QUANT	5.00000E+001	PF Corr. (ohm)
SAMPLINGMODE	SELECTOR	2	Sampling Mode
EOC	QUANT	0.7205974	Open Circuit (V)
ELECTRODETYPE	SELECTOR	0	Electrode Type
STRIPPING	TOGGLE	F	Used for Stripping
SEQUENCER	TOGGLE	TRUE	Run as Sequence
PSTATMODEL	IQUANT	64	Pstat Model
PSTATSECTION	LABEL	IFC1010-34090	Pstat Section
PSTATSERIALNO	LABEL	34090	Pstat Serial Number
CTRLMODE	IQUANT	1	Control Mode
ELECTROMETER	IQUANT	0	RE=0 or CS=1
IESTAB	IQUANT	2	I/E Stability
CASPEED	IQUANT	4	Control Amp Speed
CONVENTION	IQUANT	1	Current Convention
ICHRANGE	IQUANT	2	Ich Range
ICHRANGEMODE	TOGGLE	F	Ich Auto Range
ICHOFFSETENABLE	TOGGLE	F	Ich Offset Enable
ICHOFFSET	QUANT	0	Ich Offset (V)
ICHFILTER	IQUANT	3	Ich Filter
VCHRANGE	IQUANT	1	Vch Range
VCHRANGEMODE	TOGGLE	F	Vch Auto Range
VCHOFFSETENABLE	TOGGLE	F	Vch Offset Enable
VCHOFFSET	QUANT	0	Vch Offset (V)
VCHFILTER	IQUANT	3	Vch Filter
IERANGELOWERLIMIT	IQUANT	4	I/E Range Lower Limit
IERANGEMODE	TOGGLE	F	I/E AutoRange
IERANGE	IQUANT	9	I/E Range
ACHSELECT	IQUANT	0	Ach Select
ACHRANGE	IQUANT	2	Ach Range
ACHOFFSETENABLE	TOGGLE	F	Ach Offset Enable
ACHOFFSET	QUANT	0	Ach Offset (V)
ACHFILTER	IQUANT	1	Ach Filter
SENSECABLEID	IQUANT	13	Sense Cable ID
PWRCABLEID	IQUANT	13	Power Cable ID
DCCALDATE	LABEL	1/30/2024	DC Calibration Date
ACCALDATE	LABEL	1/8/2024	AC Calibration Date
FRAMEWORKVERSION	LABEL	7.10.3	Framework Version
INSTRUMENTVERSION	LABEL	4.91	Instrument Version
COMMVERSION	LABEL	3.10	Communications Version
CPUPLDVERSION	LABEL	2.22	CPU PLD Version
CTRLPLDVERSION	LABEL	0.00	CTRL PLD Version
PSTATPLDVERSION	LABEL	0.00	PSTAT PLD Version
CURVE1	TABLE
	Pt	T	Vf	Im	Vu	Sig	Ach	IERange	Over	Temp
	#	s	V vs. Ref.	A	V	V	V	#	bits	deg C
	0	0.01	1.00295E-001	-2.08274E-005	0.00000E+000	9.99950E-002	0.00000E+000	9	...........	1467.43
	2	0.03	1.02276E-001	-1.63656E-005	0.00000E+000	1.01995E-001	0.00000E+000	9	...........	1467.43
	4	0.05	1.04273E-001	-1.59811E-005	0.00000E+000	1.03995E-001	0.00000E+000	9	...........	1467.43
	6	0.07	1.06277E-001	-1.57155E-005	0.00000E+000	1.05994E-001	0.00000E+000	9	...........	1467.43
	8	0.09	1.08278E-001	-1.55108E-005	0.00000E+000	1.07994E-001	0.00000E+000	9	...........	1467.43
	10	0.11	1.10279E-001	-1.53291E-005	0.00000E+000	1.09994E-001	0.00000E+000	9	...........	1467.43
	12	0.13	1.12275E-001	-1.51736E-005	0.00000E+000	1.11994E-001	0.00000E+000	9	...........	1467.43
	14	0.15	1.14279E-001	-1.50063E-005	0.00000E+000	1.13994E-001	0.00000E+000	9	...........	1467.43
	16	0.17	1.16278E-001	-1.48771E-005	0.00000E+000	1.15993E-001	0.00000E+000	9	...........	1467.43
	18	0.19	1.18280E-001	-1.47323E-005	0.00000E+000	1.17993E-001	0.00000E+000	9	...........	1467.43
	20	0.21	1.20282E-001	-1.45885E-005	0.00000E+000	1.19993E-001	0.00000E+000	9	...........	1467.43
	22	0.23	1.22281E-001	-1.44522E-005	0.00000E+000	1.21993E-001	0.00000E+000	9	...........	1467.43
	24	0.25	1.24283E-001	-1.43225E-005	0.00000E+000	1.23993E-001	0.00000E+000	9	...........	1467.43
	26	0.27	1.26283E-001	-1.41805E-005	0.00000E+000	1.25992E-001	0.00000E+000	9	...........	1467.43
	28	0.29	1.28284E-001	-1.40569E-005	0.00000E+000	1.27992E-001	0.00000E+000	9	...........	1467.43
	30	0.31	1.30285E-001	-1.39371E-005	0.00000E+000	1.29992E-001	0.00000E+000	9	...........	1467.43
	32	0.33	1.32286E-001	-1.37954E-005	0.00000E+000	1.31992E-001	0.00000E+000	9	...........	1467.43
	34	0.35	1.34273E-001	-1.36859E-005	0.00000E+000	1.33979E-001	0.00000E+000	9	...........	1467.43
	36	0.37	1.36273E-001	-1.35555E-005	0.00000E+000	1.35979E-001	0.00000E+000	9	...........	1467.43
	38	0.39	1.38275E-001	-1.34333E-005	0.00000E+000	1.37979E-001	0.00000E+000	9	...........	1467.43
	40	0.41	1.40276E-001	-1.33112E-005	0.00000E+000	1.39978E-001	0.00000E+000	9	...........	1467.43
	42	0.43	1.42277E-001	-1.31852E-005	0.00000E+000	1.41978E-001	0.00000E+000	9	...........	1467.43
	44	0.45	1.44275E-001	-1.30741E-005	0.00000E+000	1.43978E-001	0.00000E+000	9	...........	1467.43
	46	0.47	1.46277E-001	-1.29405E-005	0.00000E+000	1.45978E-001	0.00000E+000	9	...........	1467.43
	48	0.49	1.48277E-001	-1.28154E-005	0.00000E+000	1.47978E-001	0.00000E+000	9	...........	1467.43
	50	0.51	1.50279E-001	-1.27006E-005	0.00000E+000	1.49977E-001	0.00000E+000	9	...........	1467.43
	52	0.53	1.52275E-001	-1.25850E-005	0.00000E+000	1.51977E-001	0.00000E+000	9	...........	1467.43
	54	0.55	1.54278E-001	-1.24495E-005	0.00000E+000	1.53977E-001	0.00000E+000	9	...........	1467.43
	56	0.57	1.56278E-001	-1.23466E-005	0.00000E+000	1.55977E-001	0.00000E+000	9	...........	1467.43
	58	0.59	1.58279E-001	-1.22130E-005	0.00000E+000	1.57977E-001	0.00000E+000	9	...........	1467.43
	60	0.61	1.60283E-001	-1.20925E-005	0.00000E+000	1.59976E-001	0.00000E+000	9	...........	1467.43
	62	0.63	1.62282E-001	-1.19845E-005	0.00000E+000	1.61976E-001	0.00000E+000	9	...........	1467.43
	64	0.65	1.64281E-001	-1.18576E-005	0.00000E+000	1.63976E-001	0.00000E+000	9	...........	1467.43
	66	0.67	1.66284E-001	-1.17400E-005	0.00000E+000	1.65976E-001	0.00000E+000	9	...........	1467.43
	68	0.69	1.68269E-001	-1.16627E-005	0.00000E+000	1.67963E-001	0.00000E+000	9	...........	1467.43
	70	0.71	1.70269E-001	-1.14997E-005	0.00000E+000	1.69963E-001	0.00000E+000	9	...........	1467.43
	72	0.73	1.72272E-001	-1.13679E-005	0.00000E+000	1.71963E-001	0.00000E+000	9	...........	1467.43
	74	0.75	1.74272E-001	-1.12483E-005	0.00000E+000	1.73962E-001	0.00000E+000	9	...........	1467.43
	76	0.77	1.76271E-001	-1.11128E-005	0.00000E+000	1.75962E-001	0.00000E+000	9	...........	1467.43
	78	0.79	1.78272E-001	-1.10032E-005	0.00000E+000	1.77962E-001	0.00000E+000	9	...........	1467.43
	80	0.81	1.80275E-001	-1.08697E-005	0.00000E+000	1.79962E-001	0.00000E+000	9	...........	1467.43
	82	0.83	1.82275E-001	-1.07449E-005	0.00000E+000	1.81962E-001	0.00000E+000	9	...........	1467.43
	84	0.85	1.84275E-001	-1.06087E-005	0.00000E+000	1.83961E-001	0.00000E+000	9	...........	1467.43
	86	0.87	1.86276E-001	-1.04787E-005	0.00000E+000	1.85961E-001	0.00000E+000	9	...........	1467.43
	88	0.89	1.88276E-001	-1.03503E-005	0.00000E+000	1.87961E-001	0.00000E+000	9	...........	1467.43
	90	0.91	1.90277E-001	-1.02029E-005	0.00000E+000	1.89961E-001	0.00000E+000	9	...........	1467.43
	92	0.93	1.92277E-001	-1.00736E-005	0.00000E+000	1.91961E-001	0.00000E+000	9	...........	1467.43
	94	0.95	1.94277E-001	-9.92811E-006	0.00000E+000	1.93960E-001	0.00000E+000	9	...........	1467.43
	96	0.97	1.96280E-001	-9.76641E-006	0.00000E+000	1.95960E-001	0.00000E+000	9	...........	1467.43
	98	0.99	1.98278E-001	-9.61664E-006	0.00000E+000	1.97960E-001	0.00000E+000	9	...........	1467.43
	100	1.01	2.00281E-001	-9.45662E-006	0.00000E+000	1.99960E-001	0.00000E+000	9	...........	1467.43
[...]
	533	5.34	1.67327E-001	-2.10012E-005	0.00000E+000	1.66976E-001	0.00000E+000	9	...........	1467.43
	535	5.36	1.65326E-001	-2.11541E-005	0.00000E+000	1.64976E-001	0.00000E+000	9	...........	1467.43
	537	5.38	1.63325E-001	-2.12721E-005	0.00000E+000	1.62976E-001	0.00000E+000	9	...........	1467.43
	539	5.4	1.61324E-001	-2.13699E-005	0.00000E+000	1.60976E-001	0.00000E+000	9	...........	1467.43
	541	5.42	1.59324E-001	-2.14698E-005	0.00000E+000	1.58976E-001	0.00000E+000	9	...........	1467.43
	543	5.44	1.57321E-001	-2.15830E-005	0.00000E+000	1.56977E-001	0.00000E+000	9	...........	1467.43
	545	5.46	1.55323E-001	-2.16773E-005	0.00000E+000	1.54977E-001	0.00000E+000	9	...........	1467.43
	547	5.48	1.53321E-001	-2.17934E-005	0.00000E+000	1.52977E-001	0.00000E+000	9	...........	1467.43
	549	5.5	1.51323E-001	-2.18944E-005	0.00000E+000	1.50977E-001	0.00000E+000	9	...........	1467.43
	551	5.52	1.49325E-001	-2.19920E-005	0.00000E+000	1.48978E-001	0.00000E+000	9	...........	1467.43
	553	5.54	1.47324E-001	-2.20989E-005	0.00000E+000	1.46978E-001	0.00000E+000	9	...........	1467.43
	555	5.56	1.45325E-001	-2.21843E-005	0.00000E+000	1.44978E-001	0.00000E+000	9	...........	1467.43
	557	5.58	1.43321E-001	-2.23078E-005	0.00000E+000	1.42978E-001	0.00000E+000	9	...........	1467.43
	559	5.6	1.41324E-001	-2.24157E-005	0.00000E+000	1.40978E-001	0.00000E+000	9	...........	1467.43
	561	5.62	1.39322E-001	-2.25139E-005	0.00000E+000	1.38979E-001	0.00000E+000	9	...........	1467.43
	563	5.64	1.37320E-001	-2.26162E-005	0.00000E+000	1.36979E-001	0.00000E+000	9	...........	1467.43
	565	5.66	1.35320E-001	-2.27255E-005	0.00000E+000	1.34979E-001	0.00000E+000	9	...........	1467.43
	567	5.68	1.33320E-001	-2.28477E-005	0.00000E+000	1.32979E-001	0.00000E+000	9	...........	1467.43
	569	5.7	1.31331E-001	-2.29516E-005	0.00000E+000	1.30992E-001	0.00000E+000	9	...........	1467.43
	571	5.72	1.29332E-001	-2.30578E-005	0.00000E+000	1.28992E-001	0.00000E+000	9	...........	1467.43
	573	5.74	1.27331E-001	-2.31692E-005	0.00000E+000	1.26992E-001	0.00000E+000	9	...........	1467.43
	575	5.76	1.25328E-001	-2.32868E-005	0.00000E+000	1.24992E-001	0.00000E+000	9	...........	1467.43
	577	5.78	1.23328E-001	-2.33959E-005	0.00000E+000	1.22993E-001	0.00000E+000	9	...........	1467.43
	579	5.8	1.21328E-001	-2.35176E-005	0.00000E+000	1.20993E-001	0.00000E+000	9	...........	1467.43
	581	5.82	1.19326E-001	-2.36318E-005	0.00000E+000	1.18993E-001	0.00000E+000	9	...........	1467.43
	583	5.84	1.17322E-001	-2.37734E-005	0.00000E+000	1.16993E-001	0.00000E+000	9	...........	1467.43
	585	5.86	1.15324E-001	-2.38989E-005	0.00000E+000	1.14993E-001	0.00000E+000	9	...........	1467.43
	587	5.88	1.13323E-001	-2.40351E-005	0.00000E+000	1.12994E-001	0.00000E+000	9	...........	1467.43
	589	5.9	1.11318E-001	-2.41751E-005	0.00000E+000	1.10994E-001	0.00000E+000	9	...........	1467.43
	591	5.92	1.09322E-001	-2.43165E-005	0.00000E+000	1.08994E-001	0.00000E+000	9	...........	1467.43
	593	5.94	1.07315E-001	-2.44597E-005	0.00000E+000	1.06994E-001	0.00000E+000	9	...........	1467.43
	595	5.96	1.05317E-001	-2.46113E-005	0.00000E+000	1.04994E-001	0.00000E+000	9	...........	1467.43
	597	5.98	1.03318E-001	-2.47559E-005	0.00000E+000	1.02995E-001	0.00000E+000	9	...........	1467.43
	599	6	1.01316E-001	-2.49081E-005	0.00000E+000	1.00995E-001	0.00000E+000	9	...........	1467.43
	600	6.01	1.00318E-001	-2.48149E-005	0.00000E+000	9.99950E-002	0.00000E+000	9	...........	1467.43
CURVE4	TABLE
	Pt	T	Vf	Im	Vu	Sig	Ach	IERange	Over	Temp
	#	s	V vs. Ref.	A	V	V	V	#	bits	deg C
	601	6.02	1.00294E-001	-2.12591E-005	0.00000E+000	9.99950E-002	0.00000E+000	9	...........	1467.43

File: CV_ECSA_#3.DTA
EXPLAIN
TAG	CV
TITLE	LABEL	ECSA	Test Identifier
DATE	LABEL	11/7/2023	Date
TIME	LABEL	10:47:02	Time
NOTES	NOTES	1	Notes...

PSTAT	PSTAT	IFC1010-36108	Potentiostat
VINIT	POTEN	0.00000E+000	F	Initial E (V)
VLIMIT1	POTEN	5.00000E-001	F	Scan Limit 1 (V)
VLIMIT2	POTEN	0.00000E+000	F	Scan Limit 2 (V)
VFINAL	POTEN	0.00000E+000	F	Final E (V)
SCANRATE	QUANT	3.00000E+001	A Real Number
STEPSIZE	QUANT	2.00000E+000	Step Size (mV)
CYCLES	IQUANT	1	Cycles (#)
IMODE	SELECTOR	0	I/E Range Mode
IRANGE	QUANT	3.00000E-001	Max Current (mA)
AREA	QUANT	1.00000E+000	Sample Area (cm^2)
EQDELAY	QUANT	0.00000E+000	Equil. Time (s)
IRCOMP	SELECTOR	0	IRComp
PFCOR	QUANT	5.00000E+001	PF Corr. (ohm)
SAMPLINGMODE	SELECTOR	1	Sampling Mode
EOC	QUANT	0	Open Circuit (V)
ELECTRODETYPE	SELECTOR	0	Electrode Type
STRIPPING	TOGGLE	F	Used for Stripping
SEQUENCER	TOGGLE	TRUE	Run as Sequence
PSTATMODEL	IQUANT	64	Pstat Model
PSTATSECTION	LABEL	IFC1010-36108	Pstat Section
PSTATSERIALNO	LABEL	36108	Pstat Serial Number
CTRLMODE	IQUANT	1	Control Mode
ELECTROMETER	IQUANT	0	RE=0 or CS=1
IESTAB	IQUANT	2	I/E Stability
CASPEED	IQUANT	4	Control Amp Speed
CONVENTION	IQUANT	1	Current Convention
ICHRANGE	IQUANT	2	Ich Range
ICHRANGEMODE	TOGGLE	F	Ich Auto Range
ICHOFFSETENABLE	TOGGLE	F	Ich Offset Enable
ICHOFFSET	QUANT	0	Ich Offset (V)
ICHFILTER	IQUANT	3	Ich Filter
VCHRANGE	IQUANT	2	Vch Range
VCHRANGEMODE	TOGGLE	F	Vch Auto Range
VCHOFFSETENABLE	TOGGLE	F	Vch Offset Enable
VCHOFFSET	QUANT	0	Vch Offset (V)
VCHFILTER	IQUANT	3	Vch Filter
IERANGELOWERLIMIT	IQUANT	4	I/E Range Lower Limit
IERANGEMODE	TOGGLE	T	I/E AutoRange
IERANGE	IQUANT	9	I/E Range
ACHSELECT	IQUANT	0	Ach Select
ACHRANGE	IQUANT	2	Ach Range
ACHOFFSETENABLE	TOGGLE	F	Ach Offset Enable
ACHOFFSET	QUANT	0	Ach Offset (V)
ACHFILTER	IQUANT	1	Ach Filter
SENSECABLEID	IQUANT	13	Sense Cable ID
PWRCABLEID	IQUANT	13	Power Cable ID
DCCALDATE	LABEL	8/10/2023	DC Calibration Date
ACCALDATE	LABEL	6/3/2023	AC Calibration Date
FRAMEWORKVERSION	LABEL	7.10.1	Framework Version
INSTRUMENTVERSION	LABEL	4.80	Instrument Version
COMMVERSION	LABEL	3.10	Communications Version
CPUPLDVERSION	LABEL	2.22	CPU PLD Version
CTRLPLDVERSION	LABEL	0.00	CTRL PLD Version
PSTATPLDVERSION	LABEL	0.00	PSTAT PLD Version
CURVE1	TABLE
	Pt	T	Vf	Im	Vu	Sig	Ach	IERange	Over	Temp
	#	s	V vs. Ref.	A	V	V	V	#	bits	deg C
	0	0.066667	-6.98646E-005	-4.13921E-007	0.00000E+000	3.39746E-006	0.00000E+000	9	...........	1466.71
	5	0.4	9.98771E-003	-7.41838E-008	0.00000E+000	1.00004E-002	0.00000E+000	6	...........	1466.71
	10	0.733333	1.99875E-002	1.70489E-007	0.00000E+000	1.99974E-002	0.00000E+000	6	...........	1466.71
	15	1.06667	2.99894E-002	2.98427E-007	0.00000E+000	2.99944E-002	0.00000E+000	6	...........	1466.44
	20	1.4	4.00009E-002	3.04762E-007	0.00000E+000	4.00039E-002	0.00000E+000	6	...........	1466.44
	25	1.73333	4.99737E-002	4.56571E-007	0.00000E+000	5.00009E-002	0.00000E+000	6	...........	1466.44
	30	2.06667	5.99782E-002	5.30049E-007	0.00000E+000	5.99979E-002	0.00000E+000	6	...........	1466.71
	35	2.4	6.99728E-002	4.99281E-007	0.00000E+000	6.99949E-002	0.00000E+000	6	...........	1466.71
	40	2.73333	8.00045E-002	6.27135E-007	0.00000E+000	8.00044E-002	0.00000E+000	6	...........	1466.71
	45	3.06667	9.00042E-002	6.86731E-007	0.00000E+000	9.00014E-002	0.00000E+000	6	...........	1466.35
	50	3.4	9.99733E-002	6.48623E-007	0.00000E+000	9.99984E-002	0.00000E+000	6	...........	1466.35
	55	3.73333	1.09994E-001	7.65042E-007	0.00000E+000	1.09995E-001	0.00000E+000	6	...........	1466.35
	60	4.06667	1.19976E-001	8.12172E-007	0.00000E+000	1.20005E-001	0.00000E+000	6	...........	1466.71
	65	4.4	1.30007E-001	7.72651E-007	0.00000E+000	1.30002E-001	0.00000E+000	6	...........	1466.71
	70	4.73333	1.39974E-001	8.89423E-007	0.00000E+000	1.39999E-001	0.00000E+000	6	...........	1466.71
	75	5.06667	1.49971E-001	9.53390E-007	0.00000E+000	1.49996E-001	0.00000E+000	7	...........	1466.26
	80	5.4	1.59996E-001	9.07281E-007	0.00000E+000	1.60005E-001	0.00000E+000	7	...........	1466.26
	85	5.73333	1.70020E-001	9.65680E-007	0.00000E+000	1.70002E-001	0.00000E+000	7	...........	1466.26
	90	6.06667	1.80001E-001	1.06603E-006	0.00000E+000	1.79999E-001	0.00000E+000	7	...........	1466.62
	95	6.4	1.89998E-001	1.02714E-006	0.00000E+000	1.89996E-001	0.00000E+000	7	...........	1466.62
	100	6.73333	2.00005E-001	1.09582E-006	0.00000E+000	2.00006E-001	0.00000E+000	7	...........	1466.62
	105	7.06667	2.09988E-001	1.19536E-006	0.00000E+000	2.10003E-001	0.00000E+000	7	...........	1466.71
	110	7.4	2.19998E-001	1.16022E-006	0.00000E+000	2.20000E-001	0.00000E+000	7	...........	1466.71
	115	7.73333	2.29970E-001	1.24277E-006	0.00000E+000	2.29997E-001	0.00000E+000	7	...........	1466.71
	120	8.06667	2.39977E-001	1.35315E-006	0.00000E+000	2.39994E-001	0.00000E+000	7	...........	1466.62
	125	8.4	2.50011E-001	1.32470E-006	0.00000E+000	2.50003E-001	0.00000E+000	7	...........	1466.62
	130	8.73333	2.60003E-001	1.41992E-006	0.00000E+000	2.60000E-001	0.00000E+000	7	...........	1466.62
	135	9.06667	2.70018E-001	1.53182E-006	0.00000E+000	2.69997E-001	0.00000E+000	7	...........	1466.71
	140	9.4	2.79980E-001	1.52382E-006	0.00000E+000	2.79994E-001	0.00000E+000	7	...........	1466.71
	145	9.7333	2.90013E-001	1.63458E-006	0.00000E+000	2.90004E-001	0.00000E+000	7	...........	1466.71
	150	10.0667	3.00012E-001	1.75524E-006	0.00000E+000	3.00001E-001	0.00000E+000	7	...........	1466.44
	155	10.4	3.10020E-001	1.76398E-006	0.00000E+000	3.09998E-001	0.00000E+000	7	...........	1466.44
	160	10.7333	3.19995E-001	1.91335E-006	0.00000E+000	3.19995E-001	0.00000E+000	7	...........	1466.44
	165	11.0667	3.30015E-001	2.04989E-006	0.00000E+000	3.30004E-001	0.00000E+000	7	...........	1466.71
	170	11.4	3.40026E-001	2.08991E-006	0.00000E+000	3.40001E-001	0.00000E+000	7	...........	1466.71
	175	11.7333	3.50015E-001	2.28134E-006	0.00000E+000	3.49998E-001	0.00000E+000	7	...........	1466.71
	180	12.0667	3.60020E-001	2.44169E-006	0.00000E+000	3.59995E-001	0.00000E+000	7	...........	1466.35
	185	12.4	3.70020E-001	2.54214E-006	0.00000E+000	3.70005E-001	0.00000E+000	7	...........	1466.35
	190	12.7333	3.80019E-001	2.79135E-006	0.00000E+000	3.80002E-001	0.00000E+000	7	...........	1466.35
	195	13.0667	3.90045E-001	2.99619E-006	0.00000E+000	3.89999E-001	0.00000E+000	7	...........	1466.71
	200	13.4	4.00034E-001	3.17799E-006	0.00000E+000	3.99996E-001	0.00000E+000	7	...........	1466.71
	205	13.7333	4.10025E-001	3.52739E-006	0.00000E+000	4.10005E-001	0.00000E+000	7	...........	1466.71
	210	14.0667	4.20003E-001	3.84833E-006	0.00000E+000	4.20002E-001	0.00000E+000	7	...........	1466.26
	215	14.4	4.29992E-001	4.18539E-006	0.00000E+000	4.29999E-001	0.00000E+000	7	...........	1466.26
	220	14.7333	4.40008E-001	4.71089E-006	0.00000E+000	4.39996E-001	0.00000E+000	7	...........	1466.26
	225	15.0667	4.50004E-001	5.26118E-006	0.00000E+000	4.49993E-001	0.00000E+000	7	...........	1466.71
	230	15.4	4.59987E-001	5.90003E-006	0.00000E+000	4.60003E-001	0.00000E+000	7	...........	1466.71
	235	15.7333	4.70013E-001	6.81128E-006	0.00000E+000	4.70000E-001	0.00000E+000	7	...........	1466.71
	240	16.0667	4.79992E-001	7.83128E-006	0.00000E+000	4.79997E-001	0.00000E+000	7	...........	1466.71
	245	16.4	4.90013E-001	9.09602E-006	0.00000E+000	4.89994E-001	0.00000E+000	7	...........	1466.71
	250	16.7333	5.00037E-001	1.07987E-005	0.00000E+000	5.00003E-001	0.00000E+000	8	...........	1466.71
[...]
	335	22.4	3.30020E-001	1.66368E-007	0.00000E+000	3.30004E-001	0.00000E+000	6	...........	1466.71
	340	22.7333	3.19994E-001	7.62075E-008	0.00000E+000	3.19995E-001	0.00000E+000	6	...........	1466.71
	345	23.0667	3.10022E-001	-5.38934E-008	0.00000E+000	3.09998E-001	0.00000E+000	6	...........	1466.26
	350	23.4	3.00025E-001	-6.41523E-008	0.00000E+000	3.00001E-001	0.00000E+000	6	...........	1466.26
	355	23.7333	2.90010E-001	-1.35354E-007	0.00000E+000	2.90004E-001	0.00000E+000	6	...........	1466.26
	360	24.0667	2.79988E-001	-2.46031E-007	0.00000E+000	2.79994E-001	0.00000E+000	6	...........	1466.62
	365	24.4	2.70022E-001	-2.38932E-007	0.00000E+000	2.69997E-001	0.00000E+000	6	...........	1466.62
	370	24.7333	2.60005E-001	-3.06700E-007	0.00000E+000	2.60000E-001	0.00000E+000	6	...........	1466.62
	375	25.0667	2.50003E-001	-3.94118E-007	0.00000E+000	2.50003E-001	0.00000E+000	6	...........	1466.53
	380	25.4	2.39985E-001	-3.79166E-007	0.00000E+000	2.39994E-001	0.00000E+000	6	...........	1466.53
	385	25.7333	2.29983E-001	-4.46234E-007	0.00000E+000	2.29997E-001	0.00000E+000	6	...........	1466.53
	390	26.0667	2.20018E-001	-5.17189E-007	0.00000E+000	2.20000E-001	0.00000E+000	6	...........	1466.62
	395	26.4	2.10012E-001	-4.93671E-007	0.00000E+000	2.10003E-001	0.00000E+000	6	...........	1466.62
	400	26.7333	2.00006E-001	-5.63856E-007	0.00000E+000	2.00006E-001	0.00000E+000	6	...........	1466.62
	405	27.0667	1.89997E-001	-6.30093E-007	0.00000E+000	1.89996E-001	0.00000E+000	6	...........	1466.71
	410	27.4	1.80008E-001	-5.95527E-007	0.00000E+000	1.79999E-001	0.00000E+000	6	...........	1466.71
	415	27.7333	1.70018E-001	-6.69505E-007	0.00000E+000	1.70002E-001	0.00000E+000	6	...........	1466.71
	420	28.0667	1.60022E-001	-7.26683E-007	0.00000E+000	1.60005E-001	0.00000E+000	6	...........	1466.26
	425	28.4	1.49978E-001	-6.91402E-007	0.00000E+000	1.49996E-001	0.00000E+000	6	...........	1466.26
	430	28.7333	1.39992E-001	-7.77372E-007	0.00000E+000	1.39999E-001	0.00000E+000	6	...........	1466.26
	435	29.0667	1.30021E-001	-8.25332E-007	0.00000E+000	1.30002E-001	0.00000E+000	6	...........	1466.71
	440	29.4	1.20002E-001	-7.83346E-007	0.00000E+000	1.20005E-001	0.00000E+000	6	...........	1466.71
	445	29.7333	1.09999E-001	-8.76395E-007	0.00000E+000	1.09995E-001	0.00000E+000	6	...........	1466.71
	450	30.0667	9.99760E-002	-9.30115E-007	0.00000E+000	9.99984E-002	0.00000E+000	7	...........	1466.44
	455	30.4	9.00223E-002	-8.99282E-007	0.00000E+000	9.00014E-002	0.00000E+000	7	...........	1466.44
	460	30.7333	8.00046E-002	-9.35183E-007	0.00000E+000	8.00044E-002	0.00000E+000	7	...........	1466.44
	465	31.0667	6.99852E-002	-1.02632E-006	0.00000E+000	6.99949E-002	0.00000E+000	7	...........	1466.62
	470	31.4	5.99940E-002	-9.87574E-007	0.00000E+000	5.99979E-002	0.00000E+000	7	...........	1466.62
	475	31.7333	4.99735E-002	-1.03584E-006	0.00000E+000	5.00009E-002	0.00000E+000	7	...........	1466.62
	480	32.0667	4.00054E-002	-1.12758E-006	0.00000E+000	4.00039E-002	0.00000E+000	7	...........	1466.71
	485	32.4	2.99954E-002	-1.08727E-006	0.00000E+000	2.99944E-002	0.00000E+000	7	...........	1466.71
	490	32.7333	1.99741E-002	-1.14370E-006	0.00000E+000	1.99974E-002	0.00000E+000	7	...........	1466.71
	495	33.0667	9.99284E-003	-1.23310E-006	0.00000E+000	1.00004E-002	0.00000E+000	7	...........	1466.26
	500	33.4	-4.98471E-005	-1.19445E-006	0.00000E+000	3.39746E-006	0.00000E+000	7	...........	1466.26
CURVE2	TABLE
	Pt	T	Vf	Im	Vu	Sig	Ach	IERange	Over	Temp
	#	s	V vs. Ref.	A	V	V	V	#	bits	deg C
	501	33.4667	-5.36004E-005	-1.04661E-006	0.00000E+000	3.39746E-006	0.00000E+000	7	...........	1466.26