Folder: gamry_post_processing_/input (part 15)

File: CV_ECSA_#1_#5.DTA
EXPLAIN
TAG	CV
TITLE	LABEL	ECSA	Test Identifier
DATE	LABEL	17.7.2024	Date
TIME	LABEL	10:18:49	Time
NOTES	NOTES	1	Notes...

PSTAT	PSTAT	IFC1010-34090	Potentiostat
VINIT	POTEN	1.00000E-001	F	A Potential (V)
VLIMIT1	POTEN	2.00000E-001	F	A Potential (V)
VLIMIT2	POTEN	1.00000E-001	F	A Potential (V)
VFINAL	POTEN	1.00000E-001	F	A Potential (V)
SCANRATE	QUANT	4.99999E+001	A Real Number
STEPSIZE	QUANT	1.00000E+000	Step Size (mV)
CYCLES	IQUANT	3	Cycles (#)
IMODE	SELECTOR	1	I/E Range Mode
IRANGE	QUANT	3.00000E-001	Max Current (mA)
AREA	QUANT	1.00000E+000	Sample Area (cm^2)
EQDELAY	QUANT	0.00000E+000	Equil. Time (s)
IRCOMP	SELECTOR	0	IRComp
PFCOR	QUANT	5.00000E+001	PF Corr. (ohm)
SAMPLINGMODE	SELECTOR	2	Sampling Mode
EOC	QUANT	0.7205974	Open Circuit (V)
ELECTRODETYPE	SELECTOR	0	Electrode Type
STRIPPING	TOGGLE	F	Used for Stripping
SEQUENCER	TOGGLE	TRUE	Run as Sequence
PSTATMODEL	IQUANT	64	Pstat Model
PSTATSECTION	LABEL	IFC1010-34090	Pstat Section
PSTATSERIALNO	LABEL	34090	Pstat Serial Number
CTRLMODE	IQUANT	1	Control Mode
ELECTROMETER	IQUANT	0	RE=0 or CS=1
IESTAB	IQUANT	2	I/E Stability
CASPEED	IQUANT	4	Control Amp Speed
CONVENTION	IQUANT	1	Current Convention
ICHRANGE	IQUANT	2	Ich Range
ICHRANGEMODE	TOGGLE	F	Ich Auto Range
ICHOFFSETENABLE	TOGGLE	F	Ich Offset Enable
ICHOFFSET	QUANT	0	Ich Offset (V)
ICHFILTER	IQUANT	3	Ich Filter
VCHRANGE	IQUANT	1	Vch Range
VCHRANGEMODE	TOGGLE	F	Vch Auto Range
VCHOFFSETENABLE	TOGGLE	F	Vch Offset Enable
VCHOFFSET	QUANT	0	Vch Offset (V)
VCHFILTER	IQUANT	3	Vch Filter
IERANGELOWERLIMIT	IQUANT	4	I/E Range Lower Limit
IERANGEMODE	TOGGLE	F	I/E AutoRange
IERANGE	IQUANT	9	I/E Range
ACHSELECT	IQUANT	0	Ach Select
ACHRANGE	IQUANT	2	Ach Range
ACHOFFSETENABLE	TOGGLE	F	Ach Offset Enable
ACHOFFSET	QUANT	0	Ach Offset (V)
ACHFILTER	IQUANT	1	Ach Filter
SENSECABLEID	IQUANT	13	Sense Cable ID
PWRCABLEID	IQUANT	13	Power Cable ID
DCCALDATE	LABEL	1/30/2024	DC Calibration Date
ACCALDATE	LABEL	1/8/2024	AC Calibration Date
FRAMEWORKVERSION	LABEL	7.10.3	Framework Version
INSTRUMENTVERSION	LABEL	4.91	Instrument Version
COMMVERSION	LABEL	3.10	Communications Version
CPUPLDVERSION	LABEL	2.22	CPU PLD Version
CTRLPLDVERSION	LABEL	0.00	CTRL PLD Version
PSTATPLDVERSION	LABEL	0.00	PSTAT PLD Version
CURVE1	TABLE
	Pt	T	Vf	Im	Vu	Sig	Ach	IERange	Over	Temp
	#	s	V vs. Ref.	A	V	V	V	#	bits	deg C
	0	0.02	1.00269E-001	-6.79384E-006	0.00000E+000	9.99950E-002	0.00000E+000	9	...........	1466.71
	2	0.06	1.02258E-001	-4.42153E-006	0.00000E+000	1.01995E-001	0.00000E+000	9	...........	1466.71
	4	0.1	1.04258E-001	-4.30537E-006	0.00000E+000	1.03995E-001	0.00000E+000	9	...........	1466.71
	6	0.14	1.06260E-001	-4.23592E-006	0.00000E+000	1.05994E-001	0.00000E+000	9	...........	1466.71
	8	0.18	1.08260E-001	-4.19285E-006	0.00000E+000	1.07994E-001	0.00000E+000	9	...........	1466.71
	10	0.22	1.10261E-001	-4.15120E-006	0.00000E+000	1.09994E-001	0.00000E+000	9	...........	1466.71
	12	0.26	1.12259E-001	-4.11790E-006	0.00000E+000	1.11994E-001	0.00000E+000	9	...........	1466.71
	14	0.3	1.14274E-001	-4.07478E-006	0.00000E+000	1.14006E-001	0.00000E+000	9	...........	1466.71
	16	0.34	1.16274E-001	-4.05831E-006	0.00000E+000	1.16006E-001	0.00000E+000	9	...........	1466.71
	18	0.38	1.18275E-001	-4.03263E-006	0.00000E+000	1.18006E-001	0.00000E+000	9	...........	1466.71
	20	0.42	1.20276E-001	-4.00850E-006	0.00000E+000	1.20005E-001	0.00000E+000	9	...........	1466.71
	22	0.46	1.22278E-001	-3.98202E-006	0.00000E+000	1.22005E-001	0.00000E+000	9	...........	1466.71
	24	0.5	1.24279E-001	-3.96351E-006	0.00000E+000	1.24005E-001	0.00000E+000	9	...........	1466.71
	26	0.54	1.26280E-001	-3.93936E-006	0.00000E+000	1.26005E-001	0.00000E+000	9	...........	1466.71
	28	0.58	1.28282E-001	-3.91210E-006	0.00000E+000	1.28005E-001	0.00000E+000	9	...........	1466.71
	30	0.62	1.30280E-001	-3.89788E-006	0.00000E+000	1.30004E-001	0.00000E+000	9	...........	1466.71
	32	0.66	1.32283E-001	-3.85918E-006	0.00000E+000	1.32004E-001	0.00000E+000	9	...........	1466.71
	34	0.7	1.34284E-001	-3.84360E-006	0.00000E+000	1.34004E-001	0.00000E+000	9	...........	1466.71
	36	0.74	1.36285E-001	-3.82501E-006	0.00000E+000	1.36004E-001	0.00000E+000	9	...........	1466.71
	38	0.78	1.38286E-001	-3.80434E-006	0.00000E+000	1.38004E-001	0.00000E+000	9	...........	1466.71
	40	0.82	1.40286E-001	-3.78206E-006	0.00000E+000	1.40003E-001	0.00000E+000	9	...........	1466.71
	42	0.86	1.42286E-001	-3.76659E-006	0.00000E+000	1.42003E-001	0.00000E+000	9	...........	1466.71
	44	0.9	1.44284E-001	-3.74277E-006	0.00000E+000	1.44003E-001	0.00000E+000	9	...........	1466.71
	46	0.94	1.46287E-001	-3.72101E-006	0.00000E+000	1.46003E-001	0.00000E+000	9	...........	1466.71
	48	0.98	1.48286E-001	-3.69942E-006	0.00000E+000	1.48003E-001	0.00000E+000	9	...........	1466.71
	50	1.02	1.50285E-001	-3.69010E-006	0.00000E+000	1.50002E-001	0.00000E+000	9	...........	1466.71
	52	1.06	1.52283E-001	-3.65747E-006	0.00000E+000	1.52002E-001	0.00000E+000	9	...........	1466.71
	54	1.1	1.54286E-001	-3.63451E-006	0.00000E+000	1.54002E-001	0.00000E+000	9	...........	1466.71
	56	1.14	1.56286E-001	-3.61621E-006	0.00000E+000	1.56002E-001	0.00000E+000	9	...........	1466.71
	58	1.18	1.58285E-001	-3.59080E-006	0.00000E+000	1.58002E-001	0.00000E+000	9	...........	1466.71
	60	1.22	1.60289E-001	-3.57200E-006	0.00000E+000	1.60001E-001	0.00000E+000	9	...........	1466.71
	62	1.26	1.62289E-001	-3.55789E-006	0.00000E+000	1.62001E-001	0.00000E+000	9	...........	1466.71
	64	1.3	1.64290E-001	-3.53029E-006	0.00000E+000	1.64001E-001	0.00000E+000	9	...........	1466.71
	66	1.34	1.66291E-001	-3.50848E-006	0.00000E+000	1.66001E-001	0.00000E+000	9	...........	1466.71
	68	1.38	1.68288E-001	-3.48558E-006	0.00000E+000	1.68001E-001	0.00000E+000	9	...........	1466.71
	70	1.42	1.70293E-001	-3.45929E-006	0.00000E+000	1.70000E-001	0.00000E+000	9	...........	1466.71
	72	1.46	1.72293E-001	-3.44744E-006	0.00000E+000	1.72000E-001	0.00000E+000	9	...........	1466.71
	74	1.5	1.74294E-001	-3.42292E-006	0.00000E+000	1.74000E-001	0.00000E+000	9	...........	1466.71
	76	1.54	1.76291E-001	-3.40030E-006	0.00000E+000	1.76000E-001	0.00000E+000	9	...........	1466.71
	78	1.58	1.78293E-001	-3.38292E-006	0.00000E+000	1.78000E-001	0.00000E+000	9	...........	1466.71
	80	1.62	1.80294E-001	-3.35982E-006	0.00000E+000	1.79999E-001	0.00000E+000	9	...........	1466.71
	82	1.66	1.82295E-001	-3.33717E-006	0.00000E+000	1.81999E-001	0.00000E+000	9	...........	1466.71
	84	1.7	1.84295E-001	-3.30821E-006	0.00000E+000	1.83999E-001	0.00000E+000	9	...........	1466.71
	86	1.74	1.86297E-001	-3.28267E-006	0.00000E+000	1.85999E-001	0.00000E+000	9	...........	1466.71
	88	1.78	1.88296E-001	-3.26269E-006	0.00000E+000	1.87999E-001	0.00000E+000	9	...........	1466.71
	90	1.82	1.90300E-001	-3.23342E-006	0.00000E+000	1.89998E-001	0.00000E+000	9	...........	1466.71
	92	1.86	1.92299E-001	-3.20552E-006	0.00000E+000	1.91998E-001	0.00000E+000	9	...........	1466.71
	94	1.9	1.94297E-001	-3.18730E-006	0.00000E+000	1.93998E-001	0.00000E+000	9	...........	1466.71
	96	1.94	1.96298E-001	-3.15352E-006	0.00000E+000	1.95998E-001	0.00000E+000	9	...........	1466.71
	98	1.98	1.98300E-001	-3.13134E-006	0.00000E+000	1.97998E-001	0.00000E+000	9	...........	1466.71
	100	2.02	2.00302E-001	-3.10088E-006	0.00000E+000	1.99997E-001	0.00000E+000	9	...........	1466.71
[...]
	533	10.68	1.67307E-001	-8.03547E-006	0.00000E+000	1.67001E-001	0.00000E+000	9	...........	1466.71
	535	10.72	1.65307E-001	-8.05392E-006	0.00000E+000	1.65001E-001	0.00000E+000	9	...........	1466.71
	537	10.76	1.63307E-001	-8.08578E-006	0.00000E+000	1.63001E-001	0.00000E+000	9	...........	1466.71
	539	10.8	1.61305E-001	-8.10909E-006	0.00000E+000	1.61001E-001	0.00000E+000	9	...........	1466.71
	541	10.84	1.59307E-001	-8.13321E-006	0.00000E+000	1.59001E-001	0.00000E+000	9	...........	1466.71
	543	10.88	1.57304E-001	-8.15133E-006	0.00000E+000	1.57002E-001	0.00000E+000	9	...........	1466.71
	545	10.92	1.55304E-001	-8.18457E-006	0.00000E+000	1.55002E-001	0.00000E+000	9	...........	1466.71
	547	10.96	1.53302E-001	-8.20936E-006	0.00000E+000	1.53002E-001	0.00000E+000	9	...........	1466.71
	549	11	1.51304E-001	-8.23432E-006	0.00000E+000	1.51002E-001	0.00000E+000	9	...........	1466.71
	551	11.04	1.49306E-001	-8.25382E-006	0.00000E+000	1.49003E-001	0.00000E+000	9	...........	1466.71
	553	11.08	1.47306E-001	-8.28971E-006	0.00000E+000	1.47003E-001	0.00000E+000	9	...........	1466.71
	555	11.12	1.45303E-001	-8.31823E-006	0.00000E+000	1.45003E-001	0.00000E+000	9	...........	1466.71
	557	11.16	1.43301E-001	-8.34255E-006	0.00000E+000	1.43003E-001	0.00000E+000	9	...........	1466.71
	559	11.2	1.41303E-001	-8.36806E-006	0.00000E+000	1.41003E-001	0.00000E+000	9	...........	1466.71
	561	11.24	1.39303E-001	-8.39396E-006	0.00000E+000	1.39004E-001	0.00000E+000	9	...........	1466.71
	563	11.28	1.37302E-001	-8.42143E-006	0.00000E+000	1.37004E-001	0.00000E+000	9	...........	1466.71
	565	11.32	1.35303E-001	-8.44544E-006	0.00000E+000	1.35004E-001	0.00000E+000	9	...........	1466.71
	567	11.36	1.33303E-001	-8.48539E-006	0.00000E+000	1.33004E-001	0.00000E+000	9	...........	1466.71
	569	11.4	1.31302E-001	-8.51007E-006	0.00000E+000	1.31004E-001	0.00000E+000	9	...........	1466.71
	571	11.44	1.29302E-001	-8.53491E-006	0.00000E+000	1.29005E-001	0.00000E+000	9	...........	1466.71
	573	11.48	1.27301E-001	-8.57256E-006	0.00000E+000	1.27005E-001	0.00000E+000	9	...........	1466.71
	575	11.52	1.25297E-001	-8.60837E-006	0.00000E+000	1.25005E-001	0.00000E+000	9	...........	1466.71
	577	11.56	1.23300E-001	-8.63980E-006	0.00000E+000	1.23005E-001	0.00000E+000	9	...........	1466.71
	579	11.6	1.21299E-001	-8.67742E-006	0.00000E+000	1.21005E-001	0.00000E+000	9	...........	1466.71
	581	11.64	1.19295E-001	-8.71757E-006	0.00000E+000	1.19006E-001	0.00000E+000	9	...........	1466.71
	583	11.68	1.17294E-001	-8.75585E-006	0.00000E+000	1.17006E-001	0.00000E+000	9	...........	1466.71
	585	11.72	1.15295E-001	-8.79272E-006	0.00000E+000	1.15006E-001	0.00000E+000	9	...........	1466.71
	587	11.76	1.13294E-001	-8.84188E-006	0.00000E+000	1.13006E-001	0.00000E+000	9	...........	1466.71
	589	11.8	1.11279E-001	-8.88189E-006	0.00000E+000	1.10994E-001	0.00000E+000	9	...........	1466.71
	591	11.84	1.09279E-001	-8.92579E-006	0.00000E+000	1.08994E-001	0.00000E+000	9	...........	1466.71
	593	11.88	1.07279E-001	-8.97582E-006	0.00000E+000	1.06994E-001	0.00000E+000	9	...........	1466.71
	595	11.92	1.05278E-001	-9.02523E-006	0.00000E+000	1.04994E-001	0.00000E+000	9	...........	1466.71
	597	11.96	1.03278E-001	-9.07425E-006	0.00000E+000	1.02995E-001	0.00000E+000	9	...........	1466.71
	599	12	1.01277E-001	-9.13390E-006	0.00000E+000	1.00995E-001	0.00000E+000	9	...........	1466.71
	600	12.02	1.00277E-001	-9.16106E-006	0.00000E+000	9.99950E-002	0.00000E+000	9	...........	1466.71
CURVE4	TABLE
	Pt	T	Vf	Im	Vu	Sig	Ach	IERange	Over	Temp
	#	s	V vs. Ref.	A	V	V	V	#	bits	deg C
	601	12.04	1.00266E-001	-7.01942E-006	0.00000E+000	9.99950E-002	0.00000E+000	9	...........	1466.71

File: CV_ECSA_#1_#6.DTA
EXPLAIN
TAG	CV
TITLE	LABEL	ECSA	Test Identifier
DATE	LABEL	20.8.2024	Date
TIME	LABEL	8:38:47	Time
NOTES	NOTES	1	Notes...

PSTAT	PSTAT	IFC1010-36105	Potentiostat
VINIT	POTEN	-2.00000E-001	F	A Potential (V)
VLIMIT1	POTEN	0.00000E+000	F	A Potential (V)
VLIMIT2	POTEN	-2.00000E-001	F	A Potential (V)
VFINAL	POTEN	-2.00000E-001	F	A Potential (V)
SCANRATE	QUANT	5.99999E+001	A Real Number
STEPSIZE	QUANT	1.00000E+000	Step Size (mV)
CYCLES	IQUANT	3	Cycles (#)
IMODE	SELECTOR	1	I/E Range Mode
IRANGE	QUANT	3.00000E-001	Max Current (mA)
AREA	QUANT	1.00000E+000	Sample Area (cm^2)
EQDELAY	QUANT	0.00000E+000	Equil. Time (s)
IRCOMP	SELECTOR	0	IRComp
PFCOR	QUANT	5.00000E+001	PF Corr. (ohm)
SAMPLINGMODE	SELECTOR	2	Sampling Mode
EOC	QUANT	-0.1790659	Open Circuit (V)
ELECTRODETYPE	SELECTOR	0	Electrode Type
STRIPPING	TOGGLE	F	Used for Stripping
SEQUENCER	TOGGLE	TRUE	Run as Sequence
PSTATMODEL	IQUANT	64	Pstat Model
PSTATSECTION	LABEL	IFC1010-36105	Pstat Section
PSTATSERIALNO	LABEL	36105	Pstat Serial Number
CTRLMODE	IQUANT	1	Control Mode
ELECTROMETER	IQUANT	0	RE=0 or CS=1
IESTAB	IQUANT	2	I/E Stability
CASPEED	IQUANT	4	Control Amp Speed
CONVENTION	IQUANT	1	Current Convention
ICHRANGE	IQUANT	2	Ich Range
ICHRANGEMODE	TOGGLE	F	Ich Auto Range
ICHOFFSETENABLE	TOGGLE	F	Ich Offset Enable
ICHOFFSET	QUANT	0	Ich Offset (V)
ICHFILTER	IQUANT	3	Ich Filter
VCHRANGE	IQUANT	1	Vch Range
VCHRANGEMODE	TOGGLE	F	Vch Auto Range
VCHOFFSETENABLE	TOGGLE	F	Vch Offset Enable
VCHOFFSET	QUANT	0	Vch Offset (V)
VCHFILTER	IQUANT	3	Vch Filter
IERANGELOWERLIMIT	IQUANT	4	I/E Range Lower Limit
IERANGEMODE	TOGGLE	F	I/E AutoRange
IERANGE	IQUANT	9	I/E Range
ACHSELECT	IQUANT	0	Ach Select
ACHRANGE	IQUANT	2	Ach Range
ACHOFFSETENABLE	TOGGLE	F	Ach Offset Enable
ACHOFFSET	QUANT	0	Ach Offset (V)
ACHFILTER	IQUANT	1	Ach Filter
SENSECABLEID	IQUANT	13	Sense Cable ID
PWRCABLEID	IQUANT	13	Power Cable ID
DCCALDATE	LABEL	10/17/2023	DC Calibration Date
ACCALDATE	LABEL	6/2/2023	AC Calibration Date
FRAMEWORKVERSION	LABEL	7.10.3	Framework Version
INSTRUMENTVERSION	LABEL	4.91	Instrument Version
COMMVERSION	LABEL	3.10	Communications Version
CPUPLDVERSION	LABEL	2.22	CPU PLD Version
CTRLPLDVERSION	LABEL	0.00	CTRL PLD Version
PSTATPLDVERSION	LABEL	0.00	PSTAT PLD Version
CURVE1	TABLE
	Pt	T	Vf	Im	Vu	Sig	Ach	IERange	Over	Temp
	#	s	V vs. Ref.	A	V	V	V	#	bits	deg C
	0	0.016667	-2.00081E-001	-3.05521E-007	0.00000E+000	-1.99996E-001	0.00000E+000	9	...........	1488.78
	5	0.1	-1.95092E-001	1.67762E-006	0.00000E+000	-1.94995E-001	0.00000E+000	9	...........	1488.69
	10	0.183333	-1.90101E-001	1.78137E-006	0.00000E+000	-1.90006E-001	0.00000E+000	9	...........	1488.69
	15	0.266667	-1.85100E-001	1.88606E-006	0.00000E+000	-1.85005E-001	0.00000E+000	9	...........	1488.69
	20	0.35	-1.80099E-001	1.95308E-006	0.00000E+000	-1.80004E-001	0.00000E+000	9	...........	1488.69
	25	0.433333	-1.75095E-001	1.99249E-006	0.00000E+000	-1.75002E-001	0.00000E+000	9	...........	1488.69
	30	0.516667	-1.70092E-001	2.02578E-006	0.00000E+000	-1.70001E-001	0.00000E+000	9	...........	1488.69
	35	0.6	-1.65088E-001	2.04761E-006	0.00000E+000	-1.65000E-001	0.00000E+000	9	...........	1488.69
	40	0.683333	-1.60090E-001	2.05733E-006	0.00000E+000	-1.59998E-001	0.00000E+000	9	...........	1488.69
	45	0.766667	-1.55089E-001	2.07328E-006	0.00000E+000	-1.54997E-001	0.00000E+000	9	...........	1488.69
	50	0.85	-1.50088E-001	2.08220E-006	0.00000E+000	-1.49996E-001	0.00000E+000	9	...........	1488.69
	55	0.933333	-1.45085E-001	2.10088E-006	0.00000E+000	-1.44994E-001	0.00000E+000	9	...........	1488.69
	60	1.01667	-1.40097E-001	2.10366E-006	0.00000E+000	-1.40005E-001	0.00000E+000	9	...........	1488.69
	65	1.1	-1.35095E-001	2.10907E-006	0.00000E+000	-1.35004E-001	0.00000E+000	9	...........	1488.69
	70	1.18333	-1.30091E-001	2.12696E-006	0.00000E+000	-1.30003E-001	0.00000E+000	9	...........	1488.69
	75	1.26667	-1.25087E-001	2.12652E-006	0.00000E+000	-1.25001E-001	0.00000E+000	9	...........	1488.69
	80	1.35	-1.20085E-001	2.12920E-006	0.00000E+000	-1.20000E-001	0.00000E+000	9	...........	1488.69
	85	1.43333	-1.15085E-001	2.13240E-006	0.00000E+000	-1.14999E-001	0.00000E+000	9	...........	1488.69
	90	1.51667	-1.10083E-001	2.14327E-006	0.00000E+000	-1.09997E-001	0.00000E+000	9	...........	1488.69
	95	1.6	-1.05082E-001	2.15550E-006	0.00000E+000	-1.04996E-001	0.00000E+000	9	...........	1488.69
	100	1.68333	-1.00079E-001	2.15694E-006	0.00000E+000	-9.99947E-002	0.00000E+000	9	...........	1488.69
	105	1.76667	-9.50884E-002	2.16757E-006	0.00000E+000	-9.50058E-002	0.00000E+000	9	...........	1488.69
	110	1.85	-9.00877E-002	2.17796E-006	0.00000E+000	-9.00045E-002	0.00000E+000	9	...........	1488.69
	115	1.93333	-8.50862E-002	2.18856E-006	0.00000E+000	-8.50032E-002	0.00000E+000	9	...........	1488.69
	120	2.01667	-8.00872E-002	2.18736E-006	0.00000E+000	-8.00018E-002	0.00000E+000	9	...........	1488.69
	125	2.1	-7.50829E-002	2.19578E-006	0.00000E+000	-7.50005E-002	0.00000E+000	9	...........	1488.69
	130	2.18333	-7.00811E-002	2.20728E-006	0.00000E+000	-6.99992E-002	0.00000E+000	9	...........	1488.69
	135	2.26667	-6.50784E-002	2.21710E-006	0.00000E+000	-6.49978E-002	0.00000E+000	9	...........	1488.69
	140	2.35	-6.00747E-002	2.23285E-006	0.00000E+000	-5.99965E-002	0.00000E+000	9	...........	1488.69
	145	2.43333	-5.50725E-002	2.24491E-006	0.00000E+000	-5.49951E-002	0.00000E+000	9	...........	1488.69
	150	2.51667	-5.00799E-002	2.24144E-006	0.00000E+000	-5.00063E-002	0.00000E+000	9	...........	1488.69
	155	2.6	-4.50804E-002	2.27319E-006	0.00000E+000	-4.50050E-002	0.00000E+000	9	...........	1488.69
	160	2.68333	-4.00774E-002	2.29699E-006	0.00000E+000	-4.00036E-002	0.00000E+000	9	...........	1488.69
	165	2.76667	-3.50755E-002	2.31150E-006	0.00000E+000	-3.50023E-002	0.00000E+000	9	...........	1488.69
	170	2.85	-3.00702E-002	2.33616E-006	0.00000E+000	-3.00010E-002	0.00000E+000	9	...........	1488.69
	175	2.93333	-2.50664E-002	2.35629E-006	0.00000E+000	-2.49996E-002	0.00000E+000	9	...........	1488.69
	180	3.01667	-2.00631E-002	2.38045E-006	0.00000E+000	-1.99983E-002	0.00000E+000	9	...........	1488.69
	185	3.1	-1.50612E-002	2.40656E-006	0.00000E+000	-1.49970E-002	0.00000E+000	9	...........	1488.69
	190	3.18333	-1.00562E-002	2.44018E-006	0.00000E+000	-9.99562E-003	0.00000E+000	9	...........	1488.69
	195	3.26667	-5.05407E-003	2.46936E-006	0.00000E+000	-4.99428E-003	0.00000E+000	9	...........	1488.69
	200	3.35	-6.43813E-005	2.49179E-006	0.00000E+000	-5.44637E-006	0.00000E+000	9	...........	1488.69
	205	3.43333	-5.02721E-003	-4.25350E-007	0.00000E+000	-4.99428E-003	0.00000E+000	9	...........	1488.69
	210	3.51667	-1.00288E-002	-5.68543E-007	0.00000E+000	-9.99562E-003	0.00000E+000	9	...........	1488.69
	215	3.6	-1.50354E-002	-6.55014E-007	0.00000E+000	-1.49970E-002	0.00000E+000	9	...........	1488.69
	220	3.68333	-2.00380E-002	-7.14544E-007	0.00000E+000	-1.99983E-002	0.00000E+000	9	...........	1488.69
	225	3.76667	-2.50392E-002	-7.62642E-007	0.00000E+000	-2.49996E-002	0.00000E+000	9	...........	1488.69
	230	3.85	-3.00424E-002	-8.13850E-007	0.00000E+000	-3.00010E-002	0.00000E+000	9	...........	1488.69
	235	3.93333	-3.50482E-002	-8.42227E-007	0.00000E+000	-3.50023E-002	0.00000E+000	9	...........	1488.69
	240	4.01667	-4.00516E-002	-8.87752E-007	0.00000E+000	-4.00036E-002	0.00000E+000	9	...........	1488.69
[...]
	1041	17.3667	-4.10498E-002	-8.93903E-007	0.00000E+000	-4.10039E-002	0.00000E+000	9	...........	1488.69
	1046	17.45	-4.60559E-002	-9.26191E-007	0.00000E+000	-4.60052E-002	0.00000E+000	9	...........	1488.69
	1051	17.5333	-5.10458E-002	-9.41299E-007	0.00000E+000	-5.09941E-002	0.00000E+000	9	...........	1488.69
	1056	17.6167	-5.60470E-002	-9.86457E-007	0.00000E+000	-5.59954E-002	0.00000E+000	9	...........	1488.69
	1061	17.7	-6.10511E-002	-1.01363E-006	0.00000E+000	-6.09967E-002	0.00000E+000	9	...........	1488.69
	1066	17.7833	-6.60551E-002	-1.05317E-006	0.00000E+000	-6.59981E-002	0.00000E+000	9	...........	1488.69
	1071	17.8667	-7.10570E-002	-1.07567E-006	0.00000E+000	-7.09994E-002	0.00000E+000	9	...........	1488.69
	1076	17.95	-7.60582E-002	-1.10515E-006	0.00000E+000	-7.60008E-002	0.00000E+000	9	...........	1488.69
	1081	18.0333	-8.10603E-002	-1.12815E-006	0.00000E+000	-8.10021E-002	0.00000E+000	9	...........	1488.69
	1086	18.1167	-8.60623E-002	-1.16010E-006	0.00000E+000	-8.60034E-002	0.00000E+000	9	...........	1488.69
	1091	18.2	-9.10599E-002	-1.18851E-006	0.00000E+000	-9.10048E-002	0.00000E+000	9	...........	1488.69
	1096	18.2833	-9.60649E-002	-1.21552E-006	0.00000E+000	-9.60061E-002	0.00000E+000	9	...........	1488.69
	1101	18.3667	-1.01054E-001	-1.23437E-006	0.00000E+000	-1.00995E-001	0.00000E+000	9	...........	1488.69
	1106	18.45	-1.06058E-001	-1.25991E-006	0.00000E+000	-1.05996E-001	0.00000E+000	9	...........	1488.69
	1111	18.5333	-1.11057E-001	-1.29631E-006	0.00000E+000	-1.10998E-001	0.00000E+000	9	...........	1488.69
	1116	18.6167	-1.16060E-001	-1.32168E-006	0.00000E+000	-1.15999E-001	0.00000E+000	9	...........	1488.69
	1121	18.7	-1.21062E-001	-1.36824E-006	0.00000E+000	-1.21000E-001	0.00000E+000	9	...........	1488.69
	1126	18.7833	-1.26063E-001	-1.38555E-006	0.00000E+000	-1.26002E-001	0.00000E+000	9	...........	1488.69
	1131	18.8667	-1.31069E-001	-1.42222E-006	0.00000E+000	-1.31003E-001	0.00000E+000	9	...........	1488.69
	1136	18.95	-1.36066E-001	-1.45504E-006	0.00000E+000	-1.36004E-001	0.00000E+000	9	...........	1488.69
	1141	19.0333	-1.41069E-001	-1.49194E-006	0.00000E+000	-1.41006E-001	0.00000E+000	9	...........	1488.69
	1146	19.1167	-1.46059E-001	-1.52119E-006	0.00000E+000	-1.45994E-001	0.00000E+000	9	...........	1488.69
	1151	19.2	-1.51060E-001	-1.56648E-006	0.00000E+000	-1.50996E-001	0.00000E+000	9	...........	1488.69
	1156	19.2833	-1.56062E-001	-1.60977E-006	0.00000E+000	-1.55997E-001	0.00000E+000	9	...........	1488.69
	1161	19.3667	-1.61065E-001	-1.65870E-006	0.00000E+000	-1.60998E-001	0.00000E+000	9	...........	1488.69
	1166	19.45	-1.66064E-001	-1.70058E-006	0.00000E+000	-1.66000E-001	0.00000E+000	9	...........	1488.69
	1171	19.5333	-1.71067E-001	-1.75223E-006	0.00000E+000	-1.71001E-001	0.00000E+000	9	...........	1488.69
	1176	19.6167	-1.76070E-001	-1.81069E-006	0.00000E+000	-1.76002E-001	0.00000E+000	9	...........	1488.69
	1181	19.7	-1.81073E-001	-1.88105E-006	0.00000E+000	-1.81004E-001	0.00000E+000	9	...........	1488.69
	1186	19.7833	-1.86071E-001	-1.94643E-006	0.00000E+000	-1.86005E-001	0.00000E+000	9	...........	1488.69
	1191	19.8667	-1.91062E-001	-2.01856E-006	0.00000E+000	-1.90994E-001	0.00000E+000	9	...........	1488.69
	1196	19.95	-1.96065E-001	-2.12124E-006	0.00000E+000	-1.95995E-001	0.00000E+000	9	...........	1488.69
	1200	20.0167	-2.00067E-001	-2.21185E-006	0.00000E+000	-1.99996E-001	0.00000E+000	9	...........	1488.69
CURVE4	TABLE
	Pt	T	Vf	Im	Vu	Sig	Ach	IERange	Over	Temp
	#	s	V vs. Ref.	A	V	V	V	#	bits	deg C
	1201	20.0333	-2.00079E-001	-5.33246E-007	0.00000E+000	-1.99996E-001	0.00000E+000	9	...........	1488.69