Folder: gamry_post_processing_/input (part 21)

File: CV_ECSA_#2_#6.DTA
EXPLAIN
TAG	CV
TITLE	LABEL	ECSA	Test Identifier
DATE	LABEL	17.7.2024	Date
TIME	LABEL	13:20:42	Time
NOTES	NOTES	1	Notes...

PSTAT	PSTAT	IFC1010-34090	Potentiostat
VINIT	POTEN	1.00000E-001	F	A Potential (V)
VLIMIT1	POTEN	2.00000E-001	F	A Potential (V)
VLIMIT2	POTEN	1.00000E-001	F	A Potential (V)
VFINAL	POTEN	1.00000E-001	F	A Potential (V)
SCANRATE	QUANT	5.99999E+001	A Real Number
STEPSIZE	QUANT	1.00000E+000	Step Size (mV)
CYCLES	IQUANT	3	Cycles (#)
IMODE	SELECTOR	1	I/E Range Mode
IRANGE	QUANT	3.00000E-001	Max Current (mA)
AREA	QUANT	1.00000E+000	Sample Area (cm^2)
EQDELAY	QUANT	0.00000E+000	Equil. Time (s)
IRCOMP	SELECTOR	0	IRComp
PFCOR	QUANT	5.00000E+001	PF Corr. (ohm)
SAMPLINGMODE	SELECTOR	2	Sampling Mode
EOC	QUANT	0.7205974	Open Circuit (V)
ELECTRODETYPE	SELECTOR	0	Electrode Type
STRIPPING	TOGGLE	F	Used for Stripping
SEQUENCER	TOGGLE	TRUE	Run as Sequence
PSTATMODEL	IQUANT	64	Pstat Model
PSTATSECTION	LABEL	IFC1010-34090	Pstat Section
PSTATSERIALNO	LABEL	34090	Pstat Serial Number
CTRLMODE	IQUANT	1	Control Mode
ELECTROMETER	IQUANT	0	RE=0 or CS=1
IESTAB	IQUANT	2	I/E Stability
CASPEED	IQUANT	4	Control Amp Speed
CONVENTION	IQUANT	1	Current Convention
ICHRANGE	IQUANT	2	Ich Range
ICHRANGEMODE	TOGGLE	F	Ich Auto Range
ICHOFFSETENABLE	TOGGLE	F	Ich Offset Enable
ICHOFFSET	QUANT	0	Ich Offset (V)
ICHFILTER	IQUANT	3	Ich Filter
VCHRANGE	IQUANT	1	Vch Range
VCHRANGEMODE	TOGGLE	F	Vch Auto Range
VCHOFFSETENABLE	TOGGLE	F	Vch Offset Enable
VCHOFFSET	QUANT	0	Vch Offset (V)
VCHFILTER	IQUANT	3	Vch Filter
IERANGELOWERLIMIT	IQUANT	4	I/E Range Lower Limit
IERANGEMODE	TOGGLE	F	I/E AutoRange
IERANGE	IQUANT	9	I/E Range
ACHSELECT	IQUANT	0	Ach Select
ACHRANGE	IQUANT	2	Ach Range
ACHOFFSETENABLE	TOGGLE	F	Ach Offset Enable
ACHOFFSET	QUANT	0	Ach Offset (V)
ACHFILTER	IQUANT	1	Ach Filter
SENSECABLEID	IQUANT	13	Sense Cable ID
PWRCABLEID	IQUANT	13	Power Cable ID
DCCALDATE	LABEL	1/30/2024	DC Calibration Date
ACCALDATE	LABEL	1/8/2024	AC Calibration Date
FRAMEWORKVERSION	LABEL	7.10.3	Framework Version
INSTRUMENTVERSION	LABEL	4.91	Instrument Version
COMMVERSION	LABEL	3.10	Communications Version
CPUPLDVERSION	LABEL	2.22	CPU PLD Version
CTRLPLDVERSION	LABEL	0.00	CTRL PLD Version
PSTATPLDVERSION	LABEL	0.00	PSTAT PLD Version
CURVE1	TABLE
	Pt	T	Vf	Im	Vu	Sig	Ach	IERange	Over	Temp
	#	s	V vs. Ref.	A	V	V	V	#	bits	deg C
	0	0.016667	1.00292E-001	-2.07628E-005	0.00000E+000	9.99950E-002	0.00000E+000	9	...........	1467.43
	2	0.05	1.02281E-001	-1.77673E-005	0.00000E+000	1.01995E-001	0.00000E+000	9	...........	1467.43
	4	0.083333	1.04279E-001	-1.75258E-005	0.00000E+000	1.03995E-001	0.00000E+000	9	...........	1467.43
	6	0.116667	1.06281E-001	-1.72785E-005	0.00000E+000	1.05994E-001	0.00000E+000	9	...........	1467.43
	8	0.15	1.08282E-001	-1.70727E-005	0.00000E+000	1.07994E-001	0.00000E+000	9	...........	1467.43
	10	0.183333	1.10284E-001	-1.69589E-005	0.00000E+000	1.09994E-001	0.00000E+000	9	...........	1467.43
	12	0.216667	1.12281E-001	-1.67797E-005	0.00000E+000	1.11994E-001	0.00000E+000	9	...........	1467.43
	14	0.25	1.14296E-001	-1.66018E-005	0.00000E+000	1.14006E-001	0.00000E+000	9	...........	1467.43
	16	0.283333	1.16295E-001	-1.65110E-005	0.00000E+000	1.16006E-001	0.00000E+000	9	...........	1467.43
	18	0.316667	1.18296E-001	-1.63518E-005	0.00000E+000	1.18006E-001	0.00000E+000	9	...........	1467.43
	20	0.35	1.20298E-001	-1.61884E-005	0.00000E+000	1.20005E-001	0.00000E+000	9	...........	1467.43
	22	0.383333	1.22298E-001	-1.61019E-005	0.00000E+000	1.22005E-001	0.00000E+000	9	...........	1467.43
	24	0.416667	1.24301E-001	-1.59539E-005	0.00000E+000	1.24005E-001	0.00000E+000	9	...........	1467.43
	26	0.45	1.26300E-001	-1.57955E-005	0.00000E+000	1.26005E-001	0.00000E+000	9	...........	1467.43
	28	0.483333	1.28302E-001	-1.57163E-005	0.00000E+000	1.28005E-001	0.00000E+000	9	...........	1467.43
	30	0.516667	1.30301E-001	-1.55801E-005	0.00000E+000	1.30004E-001	0.00000E+000	9	...........	1467.43
	32	0.55	1.32304E-001	-1.54230E-005	0.00000E+000	1.32004E-001	0.00000E+000	9	...........	1467.43
	34	0.583333	1.34304E-001	-1.53484E-005	0.00000E+000	1.34004E-001	0.00000E+000	9	...........	1467.43
	36	0.616667	1.36303E-001	-1.52178E-005	0.00000E+000	1.36004E-001	0.00000E+000	9	...........	1467.43
	38	0.65	1.38305E-001	-1.50710E-005	0.00000E+000	1.38004E-001	0.00000E+000	9	...........	1467.43
	40	0.683333	1.40304E-001	-1.50044E-005	0.00000E+000	1.40003E-001	0.00000E+000	9	...........	1467.42
	42	0.716667	1.42305E-001	-1.48632E-005	0.00000E+000	1.42003E-001	0.00000E+000	9	...........	1467.34
	44	0.75	1.44303E-001	-1.47240E-005	0.00000E+000	1.44003E-001	0.00000E+000	9	...........	1467.34
	46	0.783333	1.46308E-001	-1.46597E-005	0.00000E+000	1.46003E-001	0.00000E+000	9	...........	1467.34
	48	0.816667	1.48306E-001	-1.45275E-005	0.00000E+000	1.48003E-001	0.00000E+000	9	...........	1467.34
	50	0.85	1.50306E-001	-1.43917E-005	0.00000E+000	1.50002E-001	0.00000E+000	9	...........	1467.34
	52	0.883333	1.52305E-001	-1.43279E-005	0.00000E+000	1.52002E-001	0.00000E+000	9	...........	1467.34
	54	0.916667	1.54307E-001	-1.41989E-005	0.00000E+000	1.54002E-001	0.00000E+000	9	...........	1467.34
	56	0.95	1.56308E-001	-1.40563E-005	0.00000E+000	1.56002E-001	0.00000E+000	9	...........	1467.34
	58	0.98333	1.58307E-001	-1.39854E-005	0.00000E+000	1.58002E-001	0.00000E+000	9	...........	1467.34
	60	1.01667	1.60310E-001	-1.38667E-005	0.00000E+000	1.60001E-001	0.00000E+000	9	...........	1467.34
	62	1.05	1.62308E-001	-1.37326E-005	0.00000E+000	1.62001E-001	0.00000E+000	9	...........	1467.34
	64	1.08333	1.64310E-001	-1.36631E-005	0.00000E+000	1.64001E-001	0.00000E+000	9	...........	1467.34
	66	1.11667	1.66312E-001	-1.35462E-005	0.00000E+000	1.66001E-001	0.00000E+000	9	...........	1467.34
	68	1.15	1.68310E-001	-1.34118E-005	0.00000E+000	1.68001E-001	0.00000E+000	9	...........	1467.34
	70	1.18333	1.70316E-001	-1.33453E-005	0.00000E+000	1.70000E-001	0.00000E+000	9	...........	1467.34
	72	1.21667	1.72314E-001	-1.32232E-005	0.00000E+000	1.72000E-001	0.00000E+000	9	...........	1467.34
	74	1.25	1.74314E-001	-1.30866E-005	0.00000E+000	1.74000E-001	0.00000E+000	9	...........	1467.34
	76	1.28333	1.76314E-001	-1.30213E-005	0.00000E+000	1.76000E-001	0.00000E+000	9	...........	1467.34
	78	1.31667	1.78317E-001	-1.29044E-005	0.00000E+000	1.78000E-001	0.00000E+000	9	...........	1467.34
	80	1.35	1.80318E-001	-1.27564E-005	0.00000E+000	1.79999E-001	0.00000E+000	9	...........	1467.34
	82	1.38333	1.82318E-001	-1.26985E-005	0.00000E+000	1.81999E-001	0.00000E+000	9	...........	1467.34
	84	1.41667	1.84319E-001	-1.25736E-005	0.00000E+000	1.83999E-001	0.00000E+000	9	...........	1467.34
	86	1.45	1.86319E-001	-1.24169E-005	0.00000E+000	1.85999E-001	0.00000E+000	9	...........	1467.34
	88	1.48333	1.88320E-001	-1.23498E-005	0.00000E+000	1.87999E-001	0.00000E+000	9	...........	1467.34
	90	1.51667	1.90320E-001	-1.22252E-005	0.00000E+000	1.89998E-001	0.00000E+000	9	...........	1467.34
	92	1.55	1.92321E-001	-1.20678E-005	0.00000E+000	1.91998E-001	0.00000E+000	9	...........	1467.34
	94	1.58333	1.94320E-001	-1.19945E-005	0.00000E+000	1.93998E-001	0.00000E+000	9	...........	1467.34
	96	1.61667	1.96321E-001	-1.18626E-005	0.00000E+000	1.95998E-001	0.00000E+000	9	...........	1467.34
	98	1.65	1.98323E-001	-1.16936E-005	0.00000E+000	1.97998E-001	0.00000E+000	9	...........	1467.34
[...]
	533	8.9	1.67339E-001	-1.96774E-005	0.00000E+000	1.67001E-001	0.00000E+000	9	...........	1467.43
	535	8.93333	1.65339E-001	-1.98294E-005	0.00000E+000	1.65001E-001	0.00000E+000	9	...........	1467.43
	537	8.96667	1.63336E-001	-1.99253E-005	0.00000E+000	1.63001E-001	0.00000E+000	9	...........	1467.43
	539	9	1.61337E-001	-1.99875E-005	0.00000E+000	1.61001E-001	0.00000E+000	9	...........	1467.43
	541	9.03333	1.59336E-001	-2.01383E-005	0.00000E+000	1.59001E-001	0.00000E+000	9	...........	1467.43
	543	9.06667	1.57332E-001	-2.02315E-005	0.00000E+000	1.57002E-001	0.00000E+000	9	...........	1467.43
	545	9.1	1.55333E-001	-2.02898E-005	0.00000E+000	1.55002E-001	0.00000E+000	9	...........	1467.43
	547	9.13333	1.53332E-001	-2.04398E-005	0.00000E+000	1.53002E-001	0.00000E+000	9	...........	1467.43
	549	9.16667	1.51333E-001	-2.05187E-005	0.00000E+000	1.51002E-001	0.00000E+000	9	...........	1467.43
	551	9.2	1.49337E-001	-2.05680E-005	0.00000E+000	1.49003E-001	0.00000E+000	9	...........	1467.43
	553	9.23333	1.47336E-001	-2.07258E-005	0.00000E+000	1.47003E-001	0.00000E+000	9	...........	1467.43
	555	9.26667	1.45335E-001	-2.08283E-005	0.00000E+000	1.45003E-001	0.00000E+000	9	...........	1467.43
	557	9.3	1.43333E-001	-2.08721E-005	0.00000E+000	1.43003E-001	0.00000E+000	9	...........	1467.43
	559	9.33333	1.41336E-001	-2.10149E-005	0.00000E+000	1.41003E-001	0.00000E+000	9	...........	1467.43
	561	9.36667	1.39332E-001	-2.11095E-005	0.00000E+000	1.39004E-001	0.00000E+000	9	...........	1467.43
	563	9.4	1.37331E-001	-2.11788E-005	0.00000E+000	1.37004E-001	0.00000E+000	9	...........	1467.43
	565	9.43333	1.35332E-001	-2.13154E-005	0.00000E+000	1.35004E-001	0.00000E+000	9	...........	1467.43
	567	9.46667	1.33333E-001	-2.14273E-005	0.00000E+000	1.33004E-001	0.00000E+000	9	...........	1467.43
	569	9.5	1.31330E-001	-2.14802E-005	0.00000E+000	1.31004E-001	0.00000E+000	9	...........	1467.43
	571	9.5333	1.29333E-001	-2.16206E-005	0.00000E+000	1.29005E-001	0.00000E+000	9	...........	1467.43
	573	9.5667	1.27330E-001	-2.17262E-005	0.00000E+000	1.27005E-001	0.00000E+000	9	...........	1467.43
	575	9.6	1.25329E-001	-2.17967E-005	0.00000E+000	1.25005E-001	0.00000E+000	9	...........	1467.43
	577	9.6333	1.23328E-001	-2.19361E-005	0.00000E+000	1.23005E-001	0.00000E+000	9	...........	1467.43
	579	9.6667	1.21327E-001	-2.20506E-005	0.00000E+000	1.21005E-001	0.00000E+000	9	...........	1467.43
	581	9.7	1.19325E-001	-2.21129E-005	0.00000E+000	1.19006E-001	0.00000E+000	9	...........	1467.43
	583	9.7333	1.17323E-001	-2.22624E-005	0.00000E+000	1.17006E-001	0.00000E+000	9	...........	1467.43
	585	9.7667	1.15325E-001	-2.23778E-005	0.00000E+000	1.15006E-001	0.00000E+000	9	...........	1467.43
	587	9.8	1.13324E-001	-2.24485E-005	0.00000E+000	1.13006E-001	0.00000E+000	9	...........	1467.43
	589	9.8333	1.11307E-001	-2.26016E-005	0.00000E+000	1.10994E-001	0.00000E+000	9	...........	1467.43
	591	9.8667	1.09310E-001	-2.27271E-005	0.00000E+000	1.08994E-001	0.00000E+000	9	...........	1467.43
	593	9.9	1.07308E-001	-2.28047E-005	0.00000E+000	1.06994E-001	0.00000E+000	9	...........	1467.43
	595	9.9333	1.05307E-001	-2.29561E-005	0.00000E+000	1.04994E-001	0.00000E+000	9	...........	1467.43
	597	9.9667	1.03307E-001	-2.30858E-005	0.00000E+000	1.02995E-001	0.00000E+000	9	...........	1467.43
	599	10	1.01307E-001	-2.31744E-005	0.00000E+000	1.00995E-001	0.00000E+000	9	...........	1467.43
	600	10.0167	1.00306E-001	-2.32399E-005	0.00000E+000	9.99950E-002	0.00000E+000	9	...........	1467.43
CURVE4	TABLE
	Pt	T	Vf	Im	Vu	Sig	Ach	IERange	Over	Temp
	#	s	V vs. Ref.	A	V	V	V	#	bits	deg C
	601	10.0333	1.00295E-001	-2.08147E-005	0.00000E+000	9.99950E-002	0.00000E+000	9	...........	1467.43

File: CV_ECSA_#2_#7.DTA
EXPLAIN
TAG	CV
TITLE	LABEL	ECSA	Test Identifier
DATE	LABEL	17.7.2024	Date
TIME	LABEL	13:20:52	Time
NOTES	NOTES	1	Notes...

PSTAT	PSTAT	IFC1010-34090	Potentiostat
VINIT	POTEN	1.00000E-001	F	A Potential (V)
VLIMIT1	POTEN	2.00000E-001	F	A Potential (V)
VLIMIT2	POTEN	1.00000E-001	F	A Potential (V)
VFINAL	POTEN	1.00000E-001	F	A Potential (V)
SCANRATE	QUANT	6.99999E+001	A Real Number
STEPSIZE	QUANT	1.00000E+000	Step Size (mV)
CYCLES	IQUANT	3	Cycles (#)
IMODE	SELECTOR	1	I/E Range Mode
IRANGE	QUANT	3.00000E-001	Max Current (mA)
AREA	QUANT	1.00000E+000	Sample Area (cm^2)
EQDELAY	QUANT	0.00000E+000	Equil. Time (s)
IRCOMP	SELECTOR	0	IRComp
PFCOR	QUANT	5.00000E+001	PF Corr. (ohm)
SAMPLINGMODE	SELECTOR	2	Sampling Mode
EOC	QUANT	0.7205974	Open Circuit (V)
ELECTRODETYPE	SELECTOR	0	Electrode Type
STRIPPING	TOGGLE	F	Used for Stripping
SEQUENCER	TOGGLE	TRUE	Run as Sequence
PSTATMODEL	IQUANT	64	Pstat Model
PSTATSECTION	LABEL	IFC1010-34090	Pstat Section
PSTATSERIALNO	LABEL	34090	Pstat Serial Number
CTRLMODE	IQUANT	1	Control Mode
ELECTROMETER	IQUANT	0	RE=0 or CS=1
IESTAB	IQUANT	2	I/E Stability
CASPEED	IQUANT	4	Control Amp Speed
CONVENTION	IQUANT	1	Current Convention
ICHRANGE	IQUANT	2	Ich Range
ICHRANGEMODE	TOGGLE	F	Ich Auto Range
ICHOFFSETENABLE	TOGGLE	F	Ich Offset Enable
ICHOFFSET	QUANT	0	Ich Offset (V)
ICHFILTER	IQUANT	3	Ich Filter
VCHRANGE	IQUANT	1	Vch Range
VCHRANGEMODE	TOGGLE	F	Vch Auto Range
VCHOFFSETENABLE	TOGGLE	F	Vch Offset Enable
VCHOFFSET	QUANT	0	Vch Offset (V)
VCHFILTER	IQUANT	3	Vch Filter
IERANGELOWERLIMIT	IQUANT	4	I/E Range Lower Limit
IERANGEMODE	TOGGLE	F	I/E AutoRange
IERANGE	IQUANT	9	I/E Range
ACHSELECT	IQUANT	0	Ach Select
ACHRANGE	IQUANT	2	Ach Range
ACHOFFSETENABLE	TOGGLE	F	Ach Offset Enable
ACHOFFSET	QUANT	0	Ach Offset (V)
ACHFILTER	IQUANT	1	Ach Filter
SENSECABLEID	IQUANT	13	Sense Cable ID
PWRCABLEID	IQUANT	13	Power Cable ID
DCCALDATE	LABEL	1/30/2024	DC Calibration Date
ACCALDATE	LABEL	1/8/2024	AC Calibration Date
FRAMEWORKVERSION	LABEL	7.10.3	Framework Version
INSTRUMENTVERSION	LABEL	4.91	Instrument Version
COMMVERSION	LABEL	3.10	Communications Version
CPUPLDVERSION	LABEL	2.22	CPU PLD Version
CTRLPLDVERSION	LABEL	0.00	CTRL PLD Version
PSTATPLDVERSION	LABEL	0.00	PSTAT PLD Version
CURVE1	TABLE
	Pt	T	Vf	Im	Vu	Sig	Ach	IERange	Over	Temp
	#	s	V vs. Ref.	A	V	V	V	#	bits	deg C
	0	0.014283	1.00296E-001	-2.07385E-005	0.00000E+000	9.99950E-002	0.00000E+000	9	...........	1467.43
	3	0.057133	1.03283E-001	-1.71754E-005	0.00000E+000	1.02995E-001	0.00000E+000	9	...........	1467.43
	6	0.099983	1.06281E-001	-1.68223E-005	0.00000E+000	1.05994E-001	0.00000E+000	9	...........	1467.43
	9	0.142833	1.09284E-001	-1.65921E-005	0.00000E+000	1.08994E-001	0.00000E+000	9	...........	1467.43
	12	0.185683	1.12283E-001	-1.63802E-005	0.00000E+000	1.11994E-001	0.00000E+000	9	...........	1467.43
	15	0.228533	1.15288E-001	-1.61585E-005	0.00000E+000	1.14993E-001	0.00000E+000	9	...........	1467.43
	18	0.271383	1.18286E-001	-1.59305E-005	0.00000E+000	1.17993E-001	0.00000E+000	9	...........	1467.43
	21	0.314233	1.21290E-001	-1.56771E-005	0.00000E+000	1.20993E-001	0.00000E+000	9	...........	1467.43
	24	0.357083	1.24290E-001	-1.54583E-005	0.00000E+000	1.23993E-001	0.00000E+000	9	...........	1467.43
	27	0.399933	1.27290E-001	-1.52825E-005	0.00000E+000	1.26992E-001	0.00000E+000	9	...........	1467.43
	30	0.442783	1.30292E-001	-1.51316E-005	0.00000E+000	1.29992E-001	0.00000E+000	9	...........	1467.43
	33	0.485633	1.33294E-001	-1.49740E-005	0.00000E+000	1.32992E-001	0.00000E+000	9	...........	1467.43
	36	0.528483	1.36293E-001	-1.47955E-005	0.00000E+000	1.35991E-001	0.00000E+000	9	...........	1467.43
	39	0.571333	1.39294E-001	-1.45932E-005	0.00000E+000	1.38991E-001	0.00000E+000	9	...........	1467.43
	42	0.614183	1.42295E-001	-1.43745E-005	0.00000E+000	1.41991E-001	0.00000E+000	9	...........	1467.34
	45	0.657033	1.45297E-001	-1.41679E-005	0.00000E+000	1.44990E-001	0.00000E+000	9	...........	1467.34
	48	0.699883	1.48298E-001	-1.40289E-005	0.00000E+000	1.47990E-001	0.00000E+000	9	...........	1467.34
	51	0.742733	1.51297E-001	-1.38978E-005	0.00000E+000	1.50990E-001	0.00000E+000	9	...........	1467.34
	54	0.785583	1.54298E-001	-1.37418E-005	0.00000E+000	1.53989E-001	0.00000E+000	9	...........	1467.34
	57	0.828433	1.57295E-001	-1.35746E-005	0.00000E+000	1.56989E-001	0.00000E+000	9	...........	1467.34
	60	0.871283	1.60300E-001	-1.33864E-005	0.00000E+000	1.59989E-001	0.00000E+000	9	...........	1467.34
	63	0.914133	1.63298E-001	-1.31756E-005	0.00000E+000	1.62989E-001	0.00000E+000	9	...........	1467.34
	66	0.95698	1.66302E-001	-1.29971E-005	0.00000E+000	1.65988E-001	0.00000E+000	9	...........	1467.34
	69	0.99983	1.69300E-001	-1.28594E-005	0.00000E+000	1.68988E-001	0.00000E+000	9	...........	1467.34
	72	1.04268	1.72304E-001	-1.27266E-005	0.00000E+000	1.71988E-001	0.00000E+000	9	...........	1467.34
	75	1.08553	1.75303E-001	-1.25768E-005	0.00000E+000	1.74987E-001	0.00000E+000	9	...........	1467.34
	78	1.12838	1.78306E-001	-1.23958E-005	0.00000E+000	1.77987E-001	0.00000E+000	9	...........	1467.34
	81	1.17123	1.81308E-001	-1.21964E-005	0.00000E+000	1.80987E-001	0.00000E+000	9	...........	1467.34
	84	1.21408	1.84308E-001	-1.19786E-005	0.00000E+000	1.83986E-001	0.00000E+000	9	...........	1467.34
	87	1.25693	1.87310E-001	-1.17845E-005	0.00000E+000	1.86986E-001	0.00000E+000	9	...........	1467.34
	90	1.29978	1.90310E-001	-1.16315E-005	0.00000E+000	1.89986E-001	0.00000E+000	9	...........	1467.34
	93	1.34263	1.93310E-001	-1.14761E-005	0.00000E+000	1.92986E-001	0.00000E+000	9	...........	1467.34
	96	1.38548	1.96310E-001	-1.13055E-005	0.00000E+000	1.95985E-001	0.00000E+000	9	...........	1467.34
	99	1.42833	1.99311E-001	-1.10942E-005	0.00000E+000	1.98985E-001	0.00000E+000	9	...........	1467.34
	102	1.47118	1.98342E-001	-1.70822E-005	0.00000E+000	1.97985E-001	0.00000E+000	9	...........	1467.34
	105	1.51403	1.95340E-001	-1.77409E-005	0.00000E+000	1.94985E-001	0.00000E+000	9	...........	1467.34
	108	1.55688	1.92341E-001	-1.81714E-005	0.00000E+000	1.91986E-001	0.00000E+000	9	...........	1467.34
	111	1.59973	1.89335E-001	-1.85295E-005	0.00000E+000	1.88986E-001	0.00000E+000	9	...........	1467.52
	114	1.64258	1.86339E-001	-1.88427E-005	0.00000E+000	1.85986E-001	0.00000E+000	9	...........	1467.52
	117	1.68543	1.83340E-001	-1.91002E-005	0.00000E+000	1.82987E-001	0.00000E+000	9	...........	1467.52
	120	1.72828	1.80336E-001	-1.92940E-005	0.00000E+000	1.79987E-001	0.00000E+000	9	...........	1467.52
	123	1.77113	1.77337E-001	-1.94529E-005	0.00000E+000	1.76987E-001	0.00000E+000	9	...........	1467.52
	126	1.81398	1.74335E-001	-1.96120E-005	0.00000E+000	1.73987E-001	0.00000E+000	9	...........	1467.52
	129	1.85683	1.71333E-001	-1.97920E-005	0.00000E+000	1.70988E-001	0.00000E+000	9	...........	1467.52
	132	1.89968	1.68333E-001	-1.99902E-005	0.00000E+000	1.67988E-001	0.00000E+000	9	...........	1467.52
	135	1.94253	1.65332E-001	-2.01853E-005	0.00000E+000	1.64988E-001	0.00000E+000	9	...........	1467.52
	138	1.98538	1.62327E-001	-2.03520E-005	0.00000E+000	1.61989E-001	0.00000E+000	9	...........	1467.52
	141	2.02823	1.59329E-001	-2.04913E-005	0.00000E+000	1.58989E-001	0.00000E+000	9	...........	1467.52
	144	2.07108	1.56327E-001	-2.06032E-005	0.00000E+000	1.55989E-001	0.00000E+000	9	...........	1467.52
[...]
	503	7.1988	1.97343E-001	-1.74263E-005	0.00000E+000	1.96985E-001	0.00000E+000	9	...........	1467.34
	506	7.24165	1.94340E-001	-1.79401E-005	0.00000E+000	1.93985E-001	0.00000E+000	9	...........	1467.34
	509	7.2845	1.91340E-001	-1.82861E-005	0.00000E+000	1.90986E-001	0.00000E+000	9	...........	1467.34
	512	7.32735	1.88339E-001	-1.85785E-005	0.00000E+000	1.87986E-001	0.00000E+000	9	...........	1467.34
	515	7.3702	1.85339E-001	-1.88788E-005	0.00000E+000	1.84986E-001	0.00000E+000	9	...........	1467.34
	518	7.41305	1.82338E-001	-1.91396E-005	0.00000E+000	1.81987E-001	0.00000E+000	9	...........	1467.34
	521	7.4559	1.79338E-001	-1.93723E-005	0.00000E+000	1.78987E-001	0.00000E+000	9	...........	1467.34
	524	7.49875	1.76334E-001	-1.95502E-005	0.00000E+000	1.75987E-001	0.00000E+000	9	...........	1467.34
	527	7.5416	1.73336E-001	-1.97038E-005	0.00000E+000	1.72988E-001	0.00000E+000	9	...........	1467.34
	530	7.58445	1.70334E-001	-1.98201E-005	0.00000E+000	1.69988E-001	0.00000E+000	9	...........	1467.43
	533	7.6273	1.67330E-001	-1.99974E-005	0.00000E+000	1.66988E-001	0.00000E+000	9	...........	1467.43
	536	7.67015	1.64328E-001	-2.01849E-005	0.00000E+000	1.63988E-001	0.00000E+000	9	...........	1467.43
	539	7.713	1.61327E-001	-2.03642E-005	0.00000E+000	1.60989E-001	0.00000E+000	9	...........	1467.43
	542	7.75585	1.58325E-001	-2.05344E-005	0.00000E+000	1.57989E-001	0.00000E+000	9	...........	1467.43
	545	7.7987	1.55325E-001	-2.06741E-005	0.00000E+000	1.54989E-001	0.00000E+000	9	...........	1467.43
	548	7.84155	1.52324E-001	-2.07775E-005	0.00000E+000	1.51990E-001	0.00000E+000	9	...........	1467.43
	551	7.8844	1.49327E-001	-2.08901E-005	0.00000E+000	1.48990E-001	0.00000E+000	9	...........	1467.43
	554	7.92725	1.46327E-001	-2.10600E-005	0.00000E+000	1.45990E-001	0.00000E+000	9	...........	1467.43
	557	7.9701	1.43322E-001	-2.12404E-005	0.00000E+000	1.42991E-001	0.00000E+000	9	...........	1467.43
	560	8.01295	1.40323E-001	-2.14206E-005	0.00000E+000	1.39991E-001	0.00000E+000	9	...........	1467.43
	563	8.0558	1.37323E-001	-2.15901E-005	0.00000E+000	1.36991E-001	0.00000E+000	9	...........	1467.43
	566	8.09865	1.34323E-001	-2.17210E-005	0.00000E+000	1.33992E-001	0.00000E+000	9	...........	1467.43
	569	8.1415	1.31322E-001	-2.18343E-005	0.00000E+000	1.30992E-001	0.00000E+000	9	...........	1467.43
	572	8.18435	1.28324E-001	-2.19660E-005	0.00000E+000	1.27992E-001	0.00000E+000	9	...........	1467.43
	575	8.2272	1.25319E-001	-2.21554E-005	0.00000E+000	1.24992E-001	0.00000E+000	9	...........	1467.43
	578	8.27005	1.22320E-001	-2.23446E-005	0.00000E+000	1.21993E-001	0.00000E+000	9	...........	1467.43
	581	8.3129	1.19319E-001	-2.25403E-005	0.00000E+000	1.18993E-001	0.00000E+000	9	...........	1467.43
	584	8.35575	1.16316E-001	-2.27161E-005	0.00000E+000	1.15993E-001	0.00000E+000	9	...........	1467.43
	587	8.3986	1.13314E-001	-2.28781E-005	0.00000E+000	1.12994E-001	0.00000E+000	9	...........	1467.43
	590	8.44145	1.10314E-001	-2.30063E-005	0.00000E+000	1.09994E-001	0.00000E+000	9	...........	1467.43
	593	8.4843	1.07309E-001	-2.31770E-005	0.00000E+000	1.06994E-001	0.00000E+000	9	...........	1467.43
	596	8.52715	1.04311E-001	-2.33851E-005	0.00000E+000	1.03995E-001	0.00000E+000	9	...........	1467.43
	599	8.57	1.01311E-001	-2.36250E-005	0.00000E+000	1.00995E-001	0.00000E+000	9	...........	1467.43
	600	8.58428	1.00310E-001	-2.36271E-005	0.00000E+000	9.99950E-002	0.00000E+000	9	...........	1467.43
CURVE4	TABLE
	Pt	T	Vf	Im	Vu	Sig	Ach	IERange	Over	Temp
	#	s	V vs. Ref.	A	V	V	V	#	bits	deg C
	601	8.59857	1.00295E-001	-2.09102E-005	0.00000E+000	9.99950E-002	0.00000E+000	9	...........	1467.43