Folder: gamry_post_processing_/input (part 29)

File: HER_POWROT_#2_#2.DTA
EXPLAIN
TAG	LSV
TITLE	LABEL	POWROT	Test Identifier
DATE	LABEL	17.7.2024	Date
TIME	LABEL	13:42:24	Time
NOTES	NOTES	1	Notes...

PSTAT	PSTAT	IFC1010-34090	Potentiostat
VINIT	POTEN	-6.00000E-001	F	Initial E (V)
VFINAL	POTEN	0.00000E+000	F	Final E (V)
SCANRATE	QUANT	4.99999E+000	Scan Rate (mV/s)
STEPSIZE	QUANT	1.00000E+000	Step Size (mV)
IMODE	SELECTOR	0	I/E Range Mode
IRANGE	QUANT	3.00000E+001	Max Current (mA)
AREA	QUANT	1.00000E+000	Sample Area (cm^2)
EQDELAY	QUANT	0.00000E+000	Equil. Time (s)
IRCOMP	SELECTOR	0	IRComp
PFCOR	QUANT	5.00000E+001	PF Corr. (ohm)
SAMPLINGMODE	SELECTOR	1	Sampling Mode
EOC	QUANT	0.7205974	Open Circuit (V)
ELECTRODETYPE	SELECTOR	0	Electrode Type
STRIPPING	TOGGLE	F	Used for Stripping
SEQUENCER	TOGGLE	TRUE	Run as Sequence
PSTATMODEL	IQUANT	64	Pstat Model
PSTATSECTION	LABEL	IFC1010-34090	Pstat Section
PSTATSERIALNO	LABEL	34090	Pstat Serial Number
CTRLMODE	IQUANT	1	Control Mode
ELECTROMETER	IQUANT	0	RE=0 or CS=1
IESTAB	IQUANT	2	I/E Stability
CASPEED	IQUANT	4	Control Amp Speed
CONVENTION	IQUANT	1	Current Convention
ICHRANGE	IQUANT	2	Ich Range
ICHRANGEMODE	TOGGLE	F	Ich Auto Range
ICHOFFSETENABLE	TOGGLE	F	Ich Offset Enable
ICHOFFSET	QUANT	0	Ich Offset (V)
ICHFILTER	IQUANT	3	Ich Filter
VCHRANGE	IQUANT	2	Vch Range
VCHRANGEMODE	TOGGLE	F	Vch Auto Range
VCHOFFSETENABLE	TOGGLE	F	Vch Offset Enable
VCHOFFSET	QUANT	0	Vch Offset (V)
VCHFILTER	IQUANT	3	Vch Filter
IERANGELOWERLIMIT	IQUANT	4	I/E Range Lower Limit
IERANGEMODE	TOGGLE	T	I/E AutoRange
IERANGE	IQUANT	11	I/E Range
ACHSELECT	IQUANT	0	Ach Select
ACHRANGE	IQUANT	2	Ach Range
ACHOFFSETENABLE	TOGGLE	F	Ach Offset Enable
ACHOFFSET	QUANT	0	Ach Offset (V)
ACHFILTER	IQUANT	1	Ach Filter
SENSECABLEID	IQUANT	13	Sense Cable ID
PWRCABLEID	IQUANT	13	Power Cable ID
DCCALDATE	LABEL	1/30/2024	DC Calibration Date
ACCALDATE	LABEL	1/8/2024	AC Calibration Date
FRAMEWORKVERSION	LABEL	7.10.3	Framework Version
INSTRUMENTVERSION	LABEL	4.91	Instrument Version
COMMVERSION	LABEL	3.10	Communications Version
CPUPLDVERSION	LABEL	2.22	CPU PLD Version
CTRLPLDVERSION	LABEL	0.00	CTRL PLD Version
PSTATPLDVERSION	LABEL	0.00	PSTAT PLD Version
CURVE	TABLE	601
	Pt	T	Vf	Im	Vu	Sig	Ach	IERange	Over	Cycle	Temp
	#	s	V vs. Ref.	A	V	V	V	#	bits	#	deg C
	0	0.2	-5.99908E-001	-9.77310E-003	0.00000E+000	-5.99999E-001	0.00000E+000	11	...........	0	1467.88
	7	1.6	-5.92903E-001	-9.36224E-003	0.00000E+000	-5.93000E-001	0.00000E+000	11	...........	0	1467.43
	14	3	-5.85901E-001	-9.02065E-003	0.00000E+000	-5.86001E-001	0.00000E+000	11	...........	0	1467.79
	21	4.4	-5.78902E-001	-9.02580E-003	0.00000E+000	-5.79001E-001	0.00000E+000	11	...........	0	1467.79
	28	5.8	-5.71903E-001	-8.67624E-003	0.00000E+000	-5.72002E-001	0.00000E+000	11	...........	0	1467.79
	35	7.2	-5.64918E-001	-8.30724E-003	0.00000E+000	-5.65003E-001	0.00000E+000	11	...........	0	1467.79
	42	8.6	-5.57873E-001	-7.95112E-003	0.00000E+000	-5.58004E-001	0.00000E+000	10	...........	0	1467.79
	49	10	-5.50887E-001	-8.10814E-003	0.00000E+000	-5.51004E-001	0.00000E+000	10	...........	0	1467.79
	56	11.4	-5.43867E-001	-7.75587E-003	0.00000E+000	-5.44005E-001	0.00000E+000	10	...........	0	1467.79
	63	12.8	-5.36859E-001	-7.47957E-003	0.00000E+000	-5.37006E-001	0.00000E+000	10	...........	0	1467.79
	70	14.2	-5.29872E-001	-7.20060E-003	0.00000E+000	-5.30006E-001	0.00000E+000	10	...........	0	1467.79
	77	15.6	-5.22856E-001	-6.91732E-003	0.00000E+000	-5.22995E-001	0.00000E+000	10	...........	0	1467.79
	84	17	-5.15858E-001	-6.64589E-003	0.00000E+000	-5.15995E-001	0.00000E+000	10	...........	0	1467.79
	91	18.4	-5.08844E-001	-6.36121E-003	0.00000E+000	-5.08996E-001	0.00000E+000	10	...........	0	1467.79
	98	19.8	-5.01846E-001	-6.10504E-003	0.00000E+000	-5.01997E-001	0.00000E+000	10	...........	0	1467.79
	105	21.2	-4.94861E-001	-5.91636E-003	0.00000E+000	-4.94997E-001	0.00000E+000	10	...........	0	1467.79
	112	22.6	-4.87856E-001	-5.89774E-003	0.00000E+000	-4.87998E-001	0.00000E+000	10	...........	0	1467.79
	119	24	-4.80850E-001	-5.62682E-003	0.00000E+000	-4.80999E-001	0.00000E+000	10	...........	0	1467.79
	126	25.4	-4.73875E-001	-5.39985E-003	0.00000E+000	-4.74000E-001	0.00000E+000	10	...........	0	1467.79
	133	26.8	-4.66841E-001	-5.37109E-003	0.00000E+000	-4.67000E-001	0.00000E+000	10	...........	0	1467.70
	140	28.2	-4.59831E-001	-5.17975E-003	0.00000E+000	-4.60001E-001	0.00000E+000	10	...........	0	1467.79
	147	29.6	-4.52855E-001	-4.91779E-003	0.00000E+000	-4.53002E-001	0.00000E+000	10	...........	0	1467.79
	154	31	-4.45843E-001	-4.85512E-003	0.00000E+000	-4.46002E-001	0.00000E+000	10	...........	0	1467.79
	161	32.4	-4.38846E-001	-4.65339E-003	0.00000E+000	-4.39003E-001	0.00000E+000	10	...........	0	1467.79
	168	33.8	-4.31822E-001	-4.47706E-003	0.00000E+000	-4.32004E-001	0.00000E+000	10	...........	0	1467.70
	175	35.2	-4.24831E-001	-4.26900E-003	0.00000E+000	-4.25005E-001	0.00000E+000	10	...........	0	1467.79
	182	36.6	-4.17829E-001	-4.04609E-003	0.00000E+000	-4.18005E-001	0.00000E+000	10	...........	0	1467.79
	189	38	-4.10826E-001	-3.88689E-003	0.00000E+000	-4.11006E-001	0.00000E+000	10	...........	0	1467.79
	196	39.4	-4.03816E-001	-3.69364E-003	0.00000E+000	-4.03994E-001	0.00000E+000	10	...........	0	1467.70
	203	40.8	-3.96827E-001	-3.49896E-003	0.00000E+000	-3.96995E-001	0.00000E+000	10	...........	0	1467.70
	210	42.2	-3.89798E-001	-3.30859E-003	0.00000E+000	-3.89996E-001	0.00000E+000	10	...........	0	1467.79
	217	43.6	-3.82787E-001	-3.11835E-003	0.00000E+000	-3.82996E-001	0.00000E+000	10	...........	0	1467.79
	224	45	-3.75807E-001	-2.92599E-003	0.00000E+000	-3.75997E-001	0.00000E+000	10	...........	0	1467.79
	231	46.4	-3.68805E-001	-2.74907E-003	0.00000E+000	-3.68998E-001	0.00000E+000	10	...........	0	1467.79
	238	47.8	-3.61808E-001	-2.55981E-003	0.00000E+000	-3.61998E-001	0.00000E+000	10	...........	0	1467.79
	245	49.2	-3.54790E-001	-2.37290E-003	0.00000E+000	-3.54999E-001	0.00000E+000	10	...........	0	1467.79
	252	50.6	-3.47806E-001	-2.19875E-003	0.00000E+000	-3.48000E-001	0.00000E+000	10	...........	0	1467.70
	259	52	-3.40795E-001	-2.01752E-003	0.00000E+000	-3.41001E-001	0.00000E+000	10	...........	0	1467.77
	266	53.4	-3.33800E-001	-1.84417E-003	0.00000E+000	-3.34001E-001	0.00000E+000	10	...........	0	1467.70
	273	54.8	-3.26793E-001	-1.66838E-003	0.00000E+000	-3.27002E-001	0.00000E+000	10	...........	0	1467.70
	280	56.2	-3.19777E-001	-1.49035E-003	0.00000E+000	-3.20003E-001	0.00000E+000	10	...........	0	1467.70
	287	57.6	-3.12793E-001	-1.32071E-003	0.00000E+000	-3.13003E-001	0.00000E+000	10	...........	0	1467.70
	294	59	-3.05797E-001	-1.15306E-003	0.00000E+000	-3.06004E-001	0.00000E+000	10	...........	0	1467.77
	301	60.4	-2.98783E-001	-9.93731E-004	0.00000E+000	-2.99005E-001	0.00000E+000	10	...........	0	1467.70
	308	61.8	-2.91785E-001	-8.41820E-004	0.00000E+000	-2.92006E-001	0.00000E+000	10	...........	0	1467.70
	315	63.2	-2.84779E-001	-6.99859E-004	0.00000E+000	-2.85006E-001	0.00000E+000	9	...........	0	1467.70
	322	64.6	-2.77754E-001	-5.64236E-004	0.00000E+000	-2.77995E-001	0.00000E+000	9	...........	0	1467.79
	329	66	-2.70786E-001	-4.42118E-004	0.00000E+000	-2.70995E-001	0.00000E+000	9	...........	0	1467.79
	336	67.4	-2.63763E-001	-3.32705E-004	0.00000E+000	-2.63996E-001	0.00000E+000	9	...........	0	1467.79
	343	68.8	-2.56783E-001	-2.32483E-004	0.00000E+000	-2.56997E-001	0.00000E+000	9	...........	0	1467.70
[...]
	357	71.6	-2.42756E-001	-7.74951E-005	0.00000E+000	-2.42998E-001	0.00000E+000	9	...........	0	1467.70
	364	73	-2.35753E-001	-2.10427E-005	0.00000E+000	-2.35999E-001	0.00000E+000	8	...........	0	1467.77
	371	74.4	-2.28753E-001	2.48545E-005	0.00000E+000	-2.29000E-001	0.00000E+000	8	...........	0	1467.70
	378	75.8	-2.21743E-001	6.15590E-005	0.00000E+000	-2.22000E-001	0.00000E+000	8	...........	0	1467.43
	385	77.2	-2.14750E-001	9.06109E-005	0.00000E+000	-2.15001E-001	0.00000E+000	8	...........	0	1467.79
	392	78.6	-2.07751E-001	1.13885E-004	0.00000E+000	-2.08002E-001	0.00000E+000	9	...........	0	1467.88
	399	80	-2.00742E-001	1.31949E-004	0.00000E+000	-2.01002E-001	0.00000E+000	9	...........	0	1467.79
	406	81.4	-1.93760E-001	1.46264E-004	0.00000E+000	-1.94003E-001	0.00000E+000	9	...........	0	1467.79
	413	82.8	-1.86744E-001	1.57705E-004	0.00000E+000	-1.87004E-001	0.00000E+000	9	...........	0	1467.79
	420	84.2	-1.79751E-001	1.66951E-004	0.00000E+000	-1.80005E-001	0.00000E+000	9	...........	0	1467.70
	427	85.6	-1.72746E-001	1.74420E-004	0.00000E+000	-1.73005E-001	0.00000E+000	9	...........	0	1467.79
	434	87	-1.65737E-001	1.80374E-004	0.00000E+000	-1.66006E-001	0.00000E+000	9	...........	0	1467.70
	441	88.4	-1.58763E-001	1.85111E-004	0.00000E+000	-1.59007E-001	0.00000E+000	9	...........	0	1467.70
	448	89.8	-1.51704E-001	1.88384E-004	0.00000E+000	-1.51995E-001	0.00000E+000	9	...........	0	1467.79
	455	91.2	-1.44728E-001	1.80801E-004	0.00000E+000	-1.44996E-001	0.00000E+000	9	...........	0	1467.79
	462	92.6	-1.37717E-001	1.81528E-004	0.00000E+000	-1.37996E-001	0.00000E+000	9	...........	0	1467.70
	469	94	-1.30721E-001	1.83196E-004	0.00000E+000	-1.30997E-001	0.00000E+000	9	...........	0	1467.73
	476	95.4	-1.23701E-001	1.84767E-004	0.00000E+000	-1.23998E-001	0.00000E+000	9	...........	0	1467.79
	483	96.8	-1.16716E-001	1.86158E-004	0.00000E+000	-1.16998E-001	0.00000E+000	9	...........	0	1467.70
	490	98.2	-1.09707E-001	1.87465E-004	0.00000E+000	-1.09999E-001	0.00000E+000	9	...........	0	1467.70
	497	99.6	-1.02724E-001	1.88610E-004	0.00000E+000	-1.03000E-001	0.00000E+000	9	...........	0	1467.79
	504	101	-9.57157E-002	1.89755E-004	0.00000E+000	-9.60006E-002	0.00000E+000	9	...........	0	1467.70
	511	102.4	-8.86944E-002	1.90897E-004	0.00000E+000	-8.90013E-002	0.00000E+000	9	...........	0	1467.70
	518	103.8	-8.17089E-002	1.92063E-004	0.00000E+000	-8.20020E-002	0.00000E+000	9	...........	0	1467.70
	525	105.2	-7.46897E-002	1.93215E-004	0.00000E+000	-7.50027E-002	0.00000E+000	9	...........	0	1467.70
	532	106.6	-6.76964E-002	1.94252E-004	0.00000E+000	-6.80034E-002	0.00000E+000	9	...........	0	1467.70
	539	108	-6.06989E-002	1.95185E-004	0.00000E+000	-6.10041E-002	0.00000E+000	9	...........	0	1467.70
	546	109.4	-5.36989E-002	1.96014E-004	0.00000E+000	-5.40048E-002	0.00000E+000	9	...........	0	1467.79
	553	110.8	-4.66879E-002	1.96680E-004	0.00000E+000	-4.70055E-002	0.00000E+000	9	...........	0	1467.70
	560	112.2	-3.97037E-002	1.97201E-004	0.00000E+000	-4.00063E-002	0.00000E+000	9	...........	0	1467.79
	567	113.6	-3.26879E-002	1.97521E-004	0.00000E+000	-3.30070E-002	0.00000E+000	9	...........	0	1467.70
	574	115	-2.56894E-002	1.97639E-004	0.00000E+000	-2.59952E-002	0.00000E+000	9	...........	0	1467.70
	581	116.4	-1.86657E-002	1.97460E-004	0.00000E+000	-1.89959E-002	0.00000E+000	9	...........	0	1467.70
	588	117.8	-1.16627E-002	1.97029E-004	0.00000E+000	-1.19966E-002	0.00000E+000	9	...........	0	1467.70
	595	119.2	-4.66736E-003	1.96365E-004	0.00000E+000	-4.99731E-003	0.00000E+000	9	...........	0	1467.70
	600	120.2	3.62894E-004	1.95753E-004	0.00000E+000	2.17557E-006	0.00000E+000	9	...........	0	1467.70

File: HER_POWROT_#2_#3.DTA
EXPLAIN
TAG	LSV
TITLE	LABEL	POWROT	Test Identifier
DATE	LABEL	17.7.2024	Date
TIME	LABEL	13:47:30	Time
NOTES	NOTES	1	Notes...

PSTAT	PSTAT	IFC1010-34090	Potentiostat
VINIT	POTEN	-6.00000E-001	F	Initial E (V)
VFINAL	POTEN	0.00000E+000	F	Final E (V)
SCANRATE	QUANT	4.99999E+000	Scan Rate (mV/s)
STEPSIZE	QUANT	1.00000E+000	Step Size (mV)
IMODE	SELECTOR	0	I/E Range Mode
IRANGE	QUANT	3.00000E+001	Max Current (mA)
AREA	QUANT	1.00000E+000	Sample Area (cm^2)
EQDELAY	QUANT	0.00000E+000	Equil. Time (s)
IRCOMP	SELECTOR	0	IRComp
PFCOR	QUANT	5.00000E+001	PF Corr. (ohm)
SAMPLINGMODE	SELECTOR	1	Sampling Mode
EOC	QUANT	0.7205974	Open Circuit (V)
ELECTRODETYPE	SELECTOR	0	Electrode Type
STRIPPING	TOGGLE	F	Used for Stripping
SEQUENCER	TOGGLE	TRUE	Run as Sequence
PSTATMODEL	IQUANT	64	Pstat Model
PSTATSECTION	LABEL	IFC1010-34090	Pstat Section
PSTATSERIALNO	LABEL	34090	Pstat Serial Number
CTRLMODE	IQUANT	1	Control Mode
ELECTROMETER	IQUANT	0	RE=0 or CS=1
IESTAB	IQUANT	2	I/E Stability
CASPEED	IQUANT	4	Control Amp Speed
CONVENTION	IQUANT	1	Current Convention
ICHRANGE	IQUANT	2	Ich Range
ICHRANGEMODE	TOGGLE	F	Ich Auto Range
ICHOFFSETENABLE	TOGGLE	F	Ich Offset Enable
ICHOFFSET	QUANT	0	Ich Offset (V)
ICHFILTER	IQUANT	3	Ich Filter
VCHRANGE	IQUANT	2	Vch Range
VCHRANGEMODE	TOGGLE	F	Vch Auto Range
VCHOFFSETENABLE	TOGGLE	F	Vch Offset Enable
VCHOFFSET	QUANT	0	Vch Offset (V)
VCHFILTER	IQUANT	3	Vch Filter
IERANGELOWERLIMIT	IQUANT	4	I/E Range Lower Limit
IERANGEMODE	TOGGLE	T	I/E AutoRange
IERANGE	IQUANT	11	I/E Range
ACHSELECT	IQUANT	0	Ach Select
ACHRANGE	IQUANT	2	Ach Range
ACHOFFSETENABLE	TOGGLE	F	Ach Offset Enable
ACHOFFSET	QUANT	0	Ach Offset (V)
ACHFILTER	IQUANT	1	Ach Filter
SENSECABLEID	IQUANT	13	Sense Cable ID
PWRCABLEID	IQUANT	13	Power Cable ID
DCCALDATE	LABEL	1/30/2024	DC Calibration Date
ACCALDATE	LABEL	1/8/2024	AC Calibration Date
FRAMEWORKVERSION	LABEL	7.10.3	Framework Version
INSTRUMENTVERSION	LABEL	4.91	Instrument Version
COMMVERSION	LABEL	3.10	Communications Version
CPUPLDVERSION	LABEL	2.22	CPU PLD Version
CTRLPLDVERSION	LABEL	0.00	CTRL PLD Version
PSTATPLDVERSION	LABEL	0.00	PSTAT PLD Version
CURVE	TABLE	601
	Pt	T	Vf	Im	Vu	Sig	Ach	IERange	Over	Cycle	Temp
	#	s	V vs. Ref.	A	V	V	V	#	bits	#	deg C
	0	0.2	-5.99899E-001	-9.57147E-003	0.00000E+000	-5.99999E-001	0.00000E+000	11	...........	0	1467.61
	7	1.6	-5.92908E-001	-9.43231E-003	0.00000E+000	-5.93000E-001	0.00000E+000	11	...........	0	1467.70
	14	3	-5.85895E-001	-9.27345E-003	0.00000E+000	-5.86001E-001	0.00000E+000	11	...........	0	1467.88
	21	4.4	-5.78893E-001	-9.01219E-003	0.00000E+000	-5.79001E-001	0.00000E+000	11	...........	0	1467.88
	28	5.8	-5.71884E-001	-8.61832E-003	0.00000E+000	-5.72002E-001	0.00000E+000	11	...........	0	1467.88
	35	7.2	-5.64913E-001	-8.28849E-003	0.00000E+000	-5.65003E-001	0.00000E+000	11	...........	0	1467.88
	42	8.6	-5.57888E-001	-8.08380E-003	0.00000E+000	-5.58004E-001	0.00000E+000	11	...........	0	1467.88
	49	10	-5.50879E-001	-7.76919E-003	0.00000E+000	-5.51004E-001	0.00000E+000	10	...........	0	1467.88
	56	11.4	-5.43860E-001	-7.56177E-003	0.00000E+000	-5.44005E-001	0.00000E+000	10	...........	0	1467.88
	63	12.8	-5.36859E-001	-7.25207E-003	0.00000E+000	-5.37006E-001	0.00000E+000	10	...........	0	1467.88
	70	14.2	-5.29855E-001	-6.91205E-003	0.00000E+000	-5.30006E-001	0.00000E+000	10	...........	0	1467.88
	77	15.6	-5.22849E-001	-6.93376E-003	0.00000E+000	-5.22995E-001	0.00000E+000	10	...........	0	1467.88
	84	17	-5.15863E-001	-6.87157E-003	0.00000E+000	-5.15995E-001	0.00000E+000	10	...........	0	1467.88
	91	18.4	-5.08836E-001	-6.56698E-003	0.00000E+000	-5.08996E-001	0.00000E+000	10	...........	0	1467.88
	98	19.8	-5.01851E-001	-6.43474E-003	0.00000E+000	-5.01997E-001	0.00000E+000	10	...........	0	1467.88
	105	21.2	-4.94847E-001	-6.18603E-003	0.00000E+000	-4.94997E-001	0.00000E+000	10	...........	0	1467.88
	112	22.6	-4.87851E-001	-5.96849E-003	0.00000E+000	-4.87998E-001	0.00000E+000	10	...........	0	1467.88
	119	24	-4.80833E-001	-5.70838E-003	0.00000E+000	-4.80999E-001	0.00000E+000	10	...........	0	1467.88
	126	25.4	-4.73873E-001	-5.49351E-003	0.00000E+000	-4.74000E-001	0.00000E+000	10	...........	0	1467.88
	133	26.8	-4.66836E-001	-5.24306E-003	0.00000E+000	-4.67000E-001	0.00000E+000	10	...........	0	1467.88
	140	28.2	-4.59825E-001	-5.01257E-003	0.00000E+000	-4.60001E-001	0.00000E+000	10	...........	0	1467.88
	147	29.6	-4.52837E-001	-4.94057E-003	0.00000E+000	-4.53002E-001	0.00000E+000	10	...........	0	1467.88
	154	31	-4.45834E-001	-4.72629E-003	0.00000E+000	-4.46002E-001	0.00000E+000	10	...........	0	1467.88
	161	32.4	-4.38831E-001	-4.51522E-003	0.00000E+000	-4.39003E-001	0.00000E+000	10	...........	0	1467.79
	168	33.8	-4.31802E-001	-4.32121E-003	0.00000E+000	-4.32004E-001	0.00000E+000	10	...........	0	1467.88
	175	35.2	-4.24820E-001	-4.10824E-003	0.00000E+000	-4.25005E-001	0.00000E+000	10	...........	0	1467.88
	182	36.6	-4.17831E-001	-3.90471E-003	0.00000E+000	-4.18005E-001	0.00000E+000	10	...........	0	1467.88
	189	38	-4.10834E-001	-3.70177E-003	0.00000E+000	-4.11006E-001	0.00000E+000	10	...........	0	1467.88
	196	39.4	-4.03802E-001	-3.55583E-003	0.00000E+000	-4.03994E-001	0.00000E+000	10	...........	0	1467.79
	203	40.8	-3.96805E-001	-3.35668E-003	0.00000E+000	-3.96995E-001	0.00000E+000	10	...........	0	1467.79
	210	42.2	-3.89796E-001	-3.16539E-003	0.00000E+000	-3.89996E-001	0.00000E+000	10	...........	0	1467.79
	217	43.6	-3.82779E-001	-2.97578E-003	0.00000E+000	-3.82996E-001	0.00000E+000	10	...........	0	1467.79
	224	45	-3.75788E-001	-2.82592E-003	0.00000E+000	-3.75997E-001	0.00000E+000	10	...........	0	1467.79
	231	46.4	-3.68793E-001	-2.63544E-003	0.00000E+000	-3.68998E-001	0.00000E+000	10	...........	0	1467.79
	238	47.8	-3.61811E-001	-2.44853E-003	0.00000E+000	-3.61998E-001	0.00000E+000	10	...........	0	1467.79
	245	49.2	-3.54798E-001	-2.27272E-003	0.00000E+000	-3.54999E-001	0.00000E+000	10	...........	0	1467.79
	252	50.6	-3.47799E-001	-2.10142E-003	0.00000E+000	-3.48000E-001	0.00000E+000	10	...........	0	1467.79
	259	52	-3.40792E-001	-1.92814E-003	0.00000E+000	-3.41001E-001	0.00000E+000	10	...........	0	1467.79
	266	53.4	-3.33798E-001	-1.76247E-003	0.00000E+000	-3.34001E-001	0.00000E+000	10	...........	0	1467.79
	273	54.8	-3.26776E-001	-1.60134E-003	0.00000E+000	-3.27002E-001	0.00000E+000	10	...........	0	1467.79
	280	56.2	-3.19775E-001	-1.43595E-003	0.00000E+000	-3.20003E-001	0.00000E+000	10	...........	0	1467.88
	287	57.6	-3.12777E-001	-1.27078E-003	0.00000E+000	-3.13003E-001	0.00000E+000	10	...........	0	1467.79
	294	59	-3.05780E-001	-1.12001E-003	0.00000E+000	-3.06004E-001	0.00000E+000	10	...........	0	1467.79
	301	60.4	-2.98764E-001	-9.64633E-004	0.00000E+000	-2.99005E-001	0.00000E+000	10	...........	0	1467.79
	308	61.8	-2.91765E-001	-8.17479E-004	0.00000E+000	-2.92006E-001	0.00000E+000	10	...........	0	1467.79
	315	63.2	-2.84777E-001	-6.79425E-004	0.00000E+000	-2.85006E-001	0.00000E+000	9	...........	0	1467.79
	322	64.6	-2.77769E-001	-5.49510E-004	0.00000E+000	-2.77995E-001	0.00000E+000	9	...........	0	1467.88
	329	66	-2.70754E-001	-4.31127E-004	0.00000E+000	-2.70995E-001	0.00000E+000	9	...........	0	1467.79
	336	67.4	-2.63765E-001	-3.24245E-004	0.00000E+000	-2.63996E-001	0.00000E+000	9	...........	0	1467.79
	343	68.8	-2.56781E-001	-2.29872E-004	0.00000E+000	-2.56997E-001	0.00000E+000	9	...........	0	1467.88
[...]
	357	71.6	-2.42758E-001	-7.84979E-005	0.00000E+000	-2.42998E-001	0.00000E+000	9	...........	0	1467.79
	364	73	-2.35746E-001	-2.04439E-005	0.00000E+000	-2.35999E-001	0.00000E+000	8	...........	0	1467.88
	371	74.4	-2.28736E-001	2.76758E-005	0.00000E+000	-2.29000E-001	0.00000E+000	8	...........	0	1467.79
	378	75.8	-2.21744E-001	6.70571E-005	0.00000E+000	-2.22000E-001	0.00000E+000	8	...........	0	1467.79
	385	77.2	-2.14738E-001	9.93489E-005	0.00000E+000	-2.15001E-001	0.00000E+000	9	...........	0	1467.97
	392	78.6	-2.07751E-001	1.25264E-004	0.00000E+000	-2.08002E-001	0.00000E+000	9	...........	0	1467.88
	399	80	-2.00735E-001	1.46383E-004	0.00000E+000	-2.01002E-001	0.00000E+000	9	...........	0	1467.88
	406	81.4	-1.93752E-001	1.63684E-004	0.00000E+000	-1.94003E-001	0.00000E+000	9	...........	0	1467.88
	413	82.8	-1.86742E-001	1.77999E-004	0.00000E+000	-1.87004E-001	0.00000E+000	9	...........	0	1467.79
	420	84.2	-1.79736E-001	1.90088E-004	0.00000E+000	-1.80005E-001	0.00000E+000	9	...........	0	1467.79
	427	85.6	-1.72735E-001	2.00348E-004	0.00000E+000	-1.73005E-001	0.00000E+000	9	...........	0	1467.79
	434	87	-1.65733E-001	2.09211E-004	0.00000E+000	-1.66006E-001	0.00000E+000	9	...........	0	1467.79
	441	88.4	-1.58731E-001	2.16916E-004	0.00000E+000	-1.59007E-001	0.00000E+000	9	...........	0	1467.79
	448	89.8	-1.51694E-001	2.23672E-004	0.00000E+000	-1.51995E-001	0.00000E+000	9	...........	0	1467.79
	455	91.2	-1.44709E-001	2.29621E-004	0.00000E+000	-1.44996E-001	0.00000E+000	9	...........	0	1467.79
	462	92.6	-1.37715E-001	2.34897E-004	0.00000E+000	-1.37996E-001	0.00000E+000	9	...........	0	1467.79
	469	94	-1.30697E-001	2.39629E-004	0.00000E+000	-1.30997E-001	0.00000E+000	9	...........	0	1467.79
	476	95.4	-1.23706E-001	2.43898E-004	0.00000E+000	-1.23998E-001	0.00000E+000	9	...........	0	1467.79
	483	96.8	-1.16701E-001	2.47786E-004	0.00000E+000	-1.16998E-001	0.00000E+000	9	...........	0	1467.88
	490	98.2	-1.09714E-001	2.51394E-004	0.00000E+000	-1.09999E-001	0.00000E+000	9	...........	0	1467.79
	497	99.6	-1.02721E-001	2.54730E-004	0.00000E+000	-1.03000E-001	0.00000E+000	9	...........	0	1467.79
	504	101	-9.57015E-002	2.57819E-004	0.00000E+000	-9.60006E-002	0.00000E+000	9	...........	0	1467.79
	511	102.4	-8.86898E-002	2.42811E-004	0.00000E+000	-8.90013E-002	0.00000E+000	9	...........	0	1467.79
	518	103.8	-8.16947E-002	2.44662E-004	0.00000E+000	-8.20020E-002	0.00000E+000	9	...........	0	1467.79
	525	105.2	-7.46826E-002	2.47745E-004	0.00000E+000	-7.50027E-002	0.00000E+000	9	...........	0	1467.79
	532	106.6	-6.76942E-002	2.50910E-004	0.00000E+000	-6.80034E-002	0.00000E+000	9	...........	0	1467.79
	539	108	-6.07033E-002	2.54130E-004	0.00000E+000	-6.10041E-002	0.00000E+000	9	...........	0	1467.79
	546	109.4	-5.36881E-002	2.57260E-004	0.00000E+000	-5.40048E-002	0.00000E+000	9	...........	0	1467.79
	553	110.8	-4.66658E-002	2.60279E-004	0.00000E+000	-4.70055E-002	0.00000E+000	9	...........	0	1467.79
	560	112.2	-3.96849E-002	2.63109E-004	0.00000E+000	-4.00063E-002	0.00000E+000	9	...........	0	1467.79
	567	113.6	-3.26859E-002	2.65742E-004	0.00000E+000	-3.30070E-002	0.00000E+000	9	...........	0	1467.79
	574	115	-2.56812E-002	2.68087E-004	0.00000E+000	-2.59952E-002	0.00000E+000	9	...........	0	1467.79
	581	116.4	-1.86607E-002	2.70233E-004	0.00000E+000	-1.89959E-002	0.00000E+000	9	...........	0	1467.79
	588	117.8	-1.16384E-002	2.72091E-004	0.00000E+000	-1.19966E-002	0.00000E+000	9	...........	0	1467.79
	595	119.2	-4.65766E-003	2.73634E-004	0.00000E+000	-4.99731E-003	0.00000E+000	9	...........	0	1467.79
	600	120.2	3.66397E-004	2.74521E-004	0.00000E+000	2.17557E-006	0.00000E+000	9	...........	0	1467.79