Folder: gamry_post_processing_/input (part 12)

File: CHRONOPOINTS_#2_#15.DTA
EXPLAIN
TAG	CHRONOA
TITLE	LABEL	Chronoamperometry Scan	Test Identifier
DATE	LABEL	2/13/2024	Date
TIME	LABEL	13:09:15	Time
NOTES	NOTES	1	Notes...

PSTAT	PSTAT	IFC1010-36068	Potentiostat
VPRESTEP	POTEN	-7.00000E-001	F	A Potential (V)
TPRESTEP	QUANT	1.00000E+000	Pre-step Delay Time (s)
VSTEP1	POTEN	-7.00000E-001	F	A Potential (V)
TSTEP1	QUANT	5.00000E+000	Step 1 Time (s)
VSTEP2	POTEN	-7.00000E-001	F	A Potential (V)
TSTEP2	QUANT	1.00000E+002	Step 2 Time (s)
SAMPLETIME	QUANT	1.00000E+000	Sample Period (s)
DECIMATE	TOGGLE	F	Decimate
ILIMIT	QUANT	1.00000E+001	Limit I (mA/cm^2)
IMODE	SELECTOR	0	I/E Range Mode
IRANGE	QUANT	3.00000E-001	Max Current (mA)
EQDELAY	QUANT	0.00000E+000	Equil. Time (s)
SAMPLINGMODE	SELECTOR	1	Sampling Mode
AREA	QUANT	1.00000E+000	Sample Area (cm^2)
IRCOMP	SELECTOR	0	IRComp
PFCOR	QUANT	5.00000E+001	PF Corr. (ohm)
ELECTRODETYPE	SELECTOR	0	Electrode Type
STRIPPING	TOGGLE	F	Used for Stripping
SEQUENCER	TOGGLE	TRUE	Run as Sequence
PSTATMODEL	IQUANT	64	Pstat Model
PSTATSECTION	LABEL	IFC1010-36068	Pstat Section
PSTATSERIALNO	LABEL	36068	Pstat Serial Number
CTRLMODE	IQUANT	1	Control Mode
ELECTROMETER	IQUANT	0	RE=0 or CS=1
IESTAB	IQUANT	0	I/E Stability
CASPEED	IQUANT	4	Control Amp Speed
CONVENTION	IQUANT	1	Current Convention
ICHRANGE	IQUANT	2	Ich Range
ICHRANGEMODE	TOGGLE	T	Ich Auto Range
ICHOFFSETENABLE	TOGGLE	F	Ich Offset Enable
ICHOFFSET	QUANT	0	Ich Offset (V)
ICHFILTER	IQUANT	4	Ich Filter
VCHRANGE	IQUANT	2	Vch Range
VCHRANGEMODE	TOGGLE	F	Vch Auto Range
VCHOFFSETENABLE	TOGGLE	F	Vch Offset Enable
VCHOFFSET	QUANT	0	Vch Offset (V)
VCHFILTER	IQUANT	4	Vch Filter
IERANGELOWERLIMIT	IQUANT	4	I/E Range Lower Limit
IERANGEMODE	TOGGLE	T	I/E AutoRange
IERANGE	IQUANT	9	I/E Range
ACHSELECT	IQUANT	0	Ach Select
ACHRANGE	IQUANT	2	Ach Range
ACHOFFSETENABLE	TOGGLE	F	Ach Offset Enable
ACHOFFSET	QUANT	0	Ach Offset (V)
ACHFILTER	IQUANT	1	Ach Filter
SENSECABLEID	IQUANT	13	Sense Cable ID
PWRCABLEID	IQUANT	13	Power Cable ID
DCCALDATE	LABEL	8/11/2023	DC Calibration Date
ACCALDATE	LABEL	6/2/2023	AC Calibration Date
FRAMEWORKVERSION	LABEL	7.10.3	Framework Version
INSTRUMENTVERSION	LABEL	4.91	Instrument Version
COMMVERSION	LABEL	3.10	Communications Version
CPUPLDVERSION	LABEL	2.22	CPU PLD Version
CTRLPLDVERSION	LABEL	0.00	CTRL PLD Version
PSTATPLDVERSION	LABEL	0.00	PSTAT PLD Version
CURVE	TABLE	106
	Pt	T	Vf	Im	Vu	Sig	Ach	IERange	Over	Temp
	#	s	V vs. Ref.	A	V	V	V	#	bits	deg C
	0	0	-6.99810E-001	-1.09191E-003	0.00000E+000	-6.99920E-001	0.00000E+000	9	....ih..i..	1468.34
	2	2	-6.99856E-001	-6.00783E-003	0.00000E+000	-6.99920E-001	0.00000E+000	10	...........	1468.34
	4	4	-6.99856E-001	-6.87199E-003	0.00000E+000	-6.99920E-001	0.00000E+000	10	...........	1468.34
	6	6	-6.99852E-001	-7.11482E-003	0.00000E+000	-6.99920E-001	0.00000E+000	10	...........	1468.34
	8	8	-6.99853E-001	-6.74197E-003	0.00000E+000	-6.99920E-001	0.00000E+000	10	...........	1468.34
	10	10	-6.99859E-001	-6.40793E-003	0.00000E+000	-6.99920E-001	0.00000E+000	10	...........	1468.34
	12	12	-6.99857E-001	-7.30671E-003	0.00000E+000	-6.99920E-001	0.00000E+000	10	...........	1468.34
	14	14	-6.99855E-001	-6.90798E-003	0.00000E+000	-6.99920E-001	0.00000E+000	10	...........	1468.34
	16	16	-6.99850E-001	-6.71040E-003	0.00000E+000	-6.99920E-001	0.00000E+000	10	...........	1468.34
	18	18	-6.99853E-001	-6.79684E-003	0.00000E+000	-6.99920E-001	0.00000E+000	10	...........	1468.34
	20	20	-6.99854E-001	-6.64926E-003	0.00000E+000	-6.99920E-001	0.00000E+000	10	...........	1468.34
	22	22	-6.99847E-001	-6.99336E-003	0.00000E+000	-6.99920E-001	0.00000E+000	10	...........	1468.43
	24	24	-6.99854E-001	-6.63398E-003	0.00000E+000	-6.99920E-001	0.00000E+000	10	...........	1468.34
	26	26	-6.99852E-001	-6.34228E-003	0.00000E+000	-6.99920E-001	0.00000E+000	10	...........	1468.34
	28	28	-6.99855E-001	-6.39800E-003	0.00000E+000	-6.99920E-001	0.00000E+000	10	...........	1468.43
	30	30	-6.99853E-001	-6.27605E-003	0.00000E+000	-6.99920E-001	0.00000E+000	10	...........	1468.34
	32	32	-6.99853E-001	-6.78118E-003	0.00000E+000	-6.99920E-001	0.00000E+000	10	...........	1468.43
	34	34	-6.99857E-001	-6.49355E-003	0.00000E+000	-6.99920E-001	0.00000E+000	10	...........	1468.34
	36	36	-6.99861E-001	-6.18371E-003	0.00000E+000	-6.99920E-001	0.00000E+000	10	...........	1468.34
	38	38	-6.99857E-001	-5.95112E-003	0.00000E+000	-6.99920E-001	0.00000E+000	10	...........	1468.34
	40	40	-6.99852E-001	-5.72784E-003	0.00000E+000	-6.99920E-001	0.00000E+000	10	...........	1468.34
	42	42	-6.99859E-001	-7.82910E-003	0.00000E+000	-6.99920E-001	0.00000E+000	10	...........	1468.34
	44	44	-6.99854E-001	-7.35276E-003	0.00000E+000	-6.99920E-001	0.00000E+000	10	...........	1468.34
	46	46	-6.99855E-001	-7.03418E-003	0.00000E+000	-6.99920E-001	0.00000E+000	10	...........	1468.43
	48	48	-6.99853E-001	-6.71799E-003	0.00000E+000	-6.99920E-001	0.00000E+000	10	...........	1468.43
	50	50	-6.99859E-001	-6.47474E-003	0.00000E+000	-6.99920E-001	0.00000E+000	10	...........	1468.43
	52	52	-6.99859E-001	-6.27440E-003	0.00000E+000	-6.99920E-001	0.00000E+000	10	...........	1468.43
	54	54	-6.99855E-001	-6.09713E-003	0.00000E+000	-6.99920E-001	0.00000E+000	10	...........	1468.34
	56	56	-6.99856E-001	-6.16710E-003	0.00000E+000	-6.99920E-001	0.00000E+000	10	...........	1468.34
	58	58	-6.99857E-001	-6.32664E-003	0.00000E+000	-6.99920E-001	0.00000E+000	10	...........	1468.34
	60	60	-6.99861E-001	-6.29809E-003	0.00000E+000	-6.99920E-001	0.00000E+000	10	...........	1468.43
	62	62	-6.99860E-001	-6.07255E-003	0.00000E+000	-6.99920E-001	0.00000E+000	10	...........	1468.34
	64	64	-6.99853E-001	-5.85538E-003	0.00000E+000	-6.99920E-001	0.00000E+000	10	...........	1468.34
	66	66	-6.99858E-001	-7.57359E-003	0.00000E+000	-6.99920E-001	0.00000E+000	10	...........	1468.34
	68	68	-6.99855E-001	-7.21336E-003	0.00000E+000	-6.99920E-001	0.00000E+000	10	...........	1468.34
	70	70	-6.99861E-001	-6.92685E-003	0.00000E+000	-6.99920E-001	0.00000E+000	10	...........	1468.43
	72	72	-6.99855E-001	-6.67214E-003	0.00000E+000	-6.99920E-001	0.00000E+000	10	...........	1468.43
	74	74	-6.99853E-001	-6.43885E-003	0.00000E+000	-6.99920E-001	0.00000E+000	10	...........	1468.43
	76	76	-6.99853E-001	-7.35000E-003	0.00000E+000	-6.99920E-001	0.00000E+000	10	...........	1468.43
	78	78	-6.99857E-001	-6.97683E-003	0.00000E+000	-6.99920E-001	0.00000E+000	10	...........	1468.43
	80	80	-6.99859E-001	-6.71905E-003	0.00000E+000	-6.99920E-001	0.00000E+000	10	...........	1468.43
	82	82	-6.99857E-001	-6.47399E-003	0.00000E+000	-6.99920E-001	0.00000E+000	10	...........	1468.43
	84	84	-6.99853E-001	-6.22105E-003	0.00000E+000	-6.99920E-001	0.00000E+000	10	...........	1468.43
	86	86	-6.99859E-001	-6.02397E-003	0.00000E+000	-6.99920E-001	0.00000E+000	10	...........	1468.43
	88	88	-6.99858E-001	-7.18074E-003	0.00000E+000	-6.99920E-001	0.00000E+000	10	...........	1468.43
	90	90	-6.99858E-001	-6.85181E-003	0.00000E+000	-6.99920E-001	0.00000E+000	10	...........	1468.43
	92	92	-6.99856E-001	-6.49341E-003	0.00000E+000	-6.99920E-001	0.00000E+000	10	...........	1468.43
	94	94	-6.99851E-001	-6.29858E-003	0.00000E+000	-6.99920E-001	0.00000E+000	10	...........	1468.43
	96	96	-6.99861E-001	-6.06919E-003	0.00000E+000	-6.99920E-001	0.00000E+000	10	...........	1468.43
	98	98	-6.99851E-001	-6.04931E-003	0.00000E+000	-6.99920E-001	0.00000E+000	10	...........	1468.34
	100	100	-6.99854E-001	-6.64089E-003	0.00000E+000	-6.99920E-001	0.00000E+000	10	...........	1468.43
	102	102	-6.99860E-001	-6.33280E-003	0.00000E+000	-6.99920E-001	0.00000E+000	10	...........	1468.43
	104	104	-6.99850E-001	-6.35108E-003	0.00000E+000	-6.99920E-001	0.00000E+000	10	...........	1468.43
	105	105	-6.99858E-001	-6.24249E-003	0.00000E+000	-6.99920E-001	0.00000E+000	10	...........	1468.43

File: CV_ECSA_#1.DTA
EXPLAIN
TAG	CV
TITLE	LABEL	ECSA	Test Identifier
DATE	LABEL	11/7/2023	Date
TIME	LABEL	10:44:31	Time
NOTES	NOTES	1	Notes...

PSTAT	PSTAT	IFC1010-36108	Potentiostat
VINIT	POTEN	0.00000E+000	F	Initial E (V)
VLIMIT1	POTEN	5.00000E-001	F	Scan Limit 1 (V)
VLIMIT2	POTEN	0.00000E+000	F	Scan Limit 2 (V)
VFINAL	POTEN	0.00000E+000	F	Final E (V)
SCANRATE	QUANT	1.00000E+001	A Real Number
STEPSIZE	QUANT	2.00000E+000	Step Size (mV)
CYCLES	IQUANT	1	Cycles (#)
IMODE	SELECTOR	0	I/E Range Mode
IRANGE	QUANT	3.00000E-001	Max Current (mA)
AREA	QUANT	1.00000E+000	Sample Area (cm^2)
EQDELAY	QUANT	0.00000E+000	Equil. Time (s)
IRCOMP	SELECTOR	0	IRComp
PFCOR	QUANT	5.00000E+001	PF Corr. (ohm)
SAMPLINGMODE	SELECTOR	1	Sampling Mode
EOC	QUANT	0	Open Circuit (V)
ELECTRODETYPE	SELECTOR	0	Electrode Type
STRIPPING	TOGGLE	F	Used for Stripping
SEQUENCER	TOGGLE	TRUE	Run as Sequence
PSTATMODEL	IQUANT	64	Pstat Model
PSTATSECTION	LABEL	IFC1010-36108	Pstat Section
PSTATSERIALNO	LABEL	36108	Pstat Serial Number
CTRLMODE	IQUANT	1	Control Mode
ELECTROMETER	IQUANT	0	RE=0 or CS=1
IESTAB	IQUANT	2	I/E Stability
CASPEED	IQUANT	4	Control Amp Speed
CONVENTION	IQUANT	1	Current Convention
ICHRANGE	IQUANT	2	Ich Range
ICHRANGEMODE	TOGGLE	F	Ich Auto Range
ICHOFFSETENABLE	TOGGLE	F	Ich Offset Enable
ICHOFFSET	QUANT	0	Ich Offset (V)
ICHFILTER	IQUANT	3	Ich Filter
VCHRANGE	IQUANT	2	Vch Range
VCHRANGEMODE	TOGGLE	F	Vch Auto Range
VCHOFFSETENABLE	TOGGLE	F	Vch Offset Enable
VCHOFFSET	QUANT	0	Vch Offset (V)
VCHFILTER	IQUANT	3	Vch Filter
IERANGELOWERLIMIT	IQUANT	4	I/E Range Lower Limit
IERANGEMODE	TOGGLE	T	I/E AutoRange
IERANGE	IQUANT	9	I/E Range
ACHSELECT	IQUANT	0	Ach Select
ACHRANGE	IQUANT	2	Ach Range
ACHOFFSETENABLE	TOGGLE	F	Ach Offset Enable
ACHOFFSET	QUANT	0	Ach Offset (V)
ACHFILTER	IQUANT	1	Ach Filter
SENSECABLEID	IQUANT	13	Sense Cable ID
PWRCABLEID	IQUANT	13	Power Cable ID
DCCALDATE	LABEL	8/10/2023	DC Calibration Date
ACCALDATE	LABEL	6/3/2023	AC Calibration Date
FRAMEWORKVERSION	LABEL	7.10.1	Framework Version
INSTRUMENTVERSION	LABEL	4.80	Instrument Version
COMMVERSION	LABEL	3.10	Communications Version
CPUPLDVERSION	LABEL	2.22	CPU PLD Version
CTRLPLDVERSION	LABEL	0.00	CTRL PLD Version
PSTATPLDVERSION	LABEL	0.00	PSTAT PLD Version
CURVE1	TABLE
	Pt	T	Vf	Im	Vu	Sig	Ach	IERange	Over	Temp
	#	s	V vs. Ref.	A	V	V	V	#	bits	deg C
	0	0.2	-8.40271E-005	1.74459E-007	0.00000E+000	3.39746E-006	0.00000E+000	9	...........	1467.07
	5	1.2	9.97300E-003	2.46350E-007	0.00000E+000	1.00004E-002	0.00000E+000	6	...........	1466.71
	10	2.2	1.99628E-002	3.24201E-007	0.00000E+000	1.99974E-002	0.00000E+000	6	...........	1466.71
	15	3.2	2.99848E-002	3.91408E-007	0.00000E+000	2.99944E-002	0.00000E+000	6	...........	1466.71
	20	4.2	3.99865E-002	4.42103E-007	0.00000E+000	4.00039E-002	0.00000E+000	6	...........	1466.71
	25	5.2	4.99539E-002	4.94677E-007	0.00000E+000	5.00009E-002	0.00000E+000	6	...........	1466.71
	30	6.2	5.99763E-002	5.35570E-007	0.00000E+000	5.99979E-002	0.00000E+000	6	...........	1466.71
	35	7.2	6.99681E-002	5.76309E-007	0.00000E+000	6.99949E-002	0.00000E+000	6	...........	1466.71
	40	8.2	8.00018E-002	6.09174E-007	0.00000E+000	8.00044E-002	0.00000E+000	6	...........	1466.71
	45	9.2	9.00016E-002	6.34952E-007	0.00000E+000	9.00014E-002	0.00000E+000	6	...........	1466.71
	50	10.2	9.99666E-002	6.71501E-007	0.00000E+000	9.99984E-002	0.00000E+000	6	....ih.....	1466.71
	55	11.2	1.09967E-001	7.05925E-007	0.00000E+000	1.09995E-001	0.00000E+000	6	....ih..i..	1466.71
	60	12.2	1.19984E-001	7.48399E-007	0.00000E+000	1.20005E-001	0.00000E+000	6	....ih..i..	1466.62
	65	13.2	1.29986E-001	7.95348E-007	0.00000E+000	1.30002E-001	0.00000E+000	6	....ih..i..	1466.62
	70	14.2	1.39965E-001	8.31809E-007	0.00000E+000	1.39999E-001	0.00000E+000	6	....ih..i..	1466.53
	75	15.2	1.49959E-001	8.76833E-007	0.00000E+000	1.49996E-001	0.00000E+000	6	....ih..i..	1466.53
	80	16.2	1.60000E-001	9.84174E-007	0.00000E+000	1.60005E-001	0.00000E+000	7	...........	1466.53
	85	17.2	1.70002E-001	1.04275E-006	0.00000E+000	1.70002E-001	0.00000E+000	7	...........	1466.71
	90	18.2	1.79994E-001	1.10528E-006	0.00000E+000	1.79999E-001	0.00000E+000	7	...........	1466.71
	95	19.2	1.89986E-001	1.17420E-006	0.00000E+000	1.89996E-001	0.00000E+000	7	...........	1466.71
	100	20.2	1.99992E-001	1.23743E-006	0.00000E+000	2.00006E-001	0.00000E+000	7	...........	1466.71
	105	21.2	2.09985E-001	1.28109E-006	0.00000E+000	2.10003E-001	0.00000E+000	7	...........	1466.71
	110	22.2	2.19993E-001	1.32809E-006	0.00000E+000	2.20000E-001	0.00000E+000	7	...........	1466.71
	115	23.2	2.29960E-001	1.37242E-006	0.00000E+000	2.29997E-001	0.00000E+000	7	...........	1466.71
	120	24.2	2.39965E-001	1.42265E-006	0.00000E+000	2.39994E-001	0.00000E+000	7	...........	1466.71
	125	25.2	2.49993E-001	1.47472E-006	0.00000E+000	2.50003E-001	0.00000E+000	7	...........	1466.71
	130	26.2	2.59997E-001	1.52896E-006	0.00000E+000	2.60000E-001	0.00000E+000	7	...........	1466.71
	135	27.2	2.70009E-001	1.59822E-006	0.00000E+000	2.69997E-001	0.00000E+000	7	...........	1466.71
	140	28.2	2.79975E-001	1.67156E-006	0.00000E+000	2.79994E-001	0.00000E+000	7	...........	1466.71
	145	29.2	2.90005E-001	1.76225E-006	0.00000E+000	2.90004E-001	0.00000E+000	7	...........	1466.71
	150	30.2	3.00002E-001	1.86350E-006	0.00000E+000	3.00001E-001	0.00000E+000	7	...........	1466.71
	155	31.2	3.10011E-001	1.97171E-006	0.00000E+000	3.09998E-001	0.00000E+000	7	...........	1466.71
	160	32.2	3.19976E-001	2.10705E-006	0.00000E+000	3.19995E-001	0.00000E+000	7	...........	1466.71
	165	33.2	3.30012E-001	2.27757E-006	0.00000E+000	3.30004E-001	0.00000E+000	7	...........	1466.71
	170	34.2	3.40024E-001	2.46957E-006	0.00000E+000	3.40001E-001	0.00000E+000	7	...........	1466.71
	175	35.2	3.50009E-001	2.69401E-006	0.00000E+000	3.49998E-001	0.00000E+000	7	...........	1466.71
	180	36.2	3.60005E-001	2.95843E-006	0.00000E+000	3.59995E-001	0.00000E+000	7	...........	1466.71
	185	37.2	3.70001E-001	3.26132E-006	0.00000E+000	3.70005E-001	0.00000E+000	7	...........	1466.71
	190	38.2	3.80017E-001	3.58867E-006	0.00000E+000	3.80002E-001	0.00000E+000	7	...........	1466.71
	195	39.2	3.90011E-001	3.96785E-006	0.00000E+000	3.89999E-001	0.00000E+000	7	...........	1466.71
	200	40.2	4.00017E-001	4.40301E-006	0.00000E+000	3.99996E-001	0.00000E+000	7	...........	1466.71
	205	41.2	4.10014E-001	4.91002E-006	0.00000E+000	4.10005E-001	0.00000E+000	7	...........	1466.71
	210	42.2	4.19991E-001	5.46527E-006	0.00000E+000	4.20002E-001	0.00000E+000	7	...........	1466.71
	215	43.2	4.29989E-001	6.07978E-006	0.00000E+000	4.29999E-001	0.00000E+000	7	...........	1466.71
	220	44.2	4.40000E-001	6.73211E-006	0.00000E+000	4.39996E-001	0.00000E+000	7	...........	1466.71
	225	45.2	4.50016E-001	7.45222E-006	0.00000E+000	4.50006E-001	0.00000E+000	7	...........	1466.80
	230	46.2	4.59976E-001	8.21554E-006	0.00000E+000	4.60003E-001	0.00000E+000	7	...........	1466.71
	235	47.2	4.69996E-001	9.04748E-006	0.00000E+000	4.70000E-001	0.00000E+000	7	...........	1466.80
	240	48.2	4.80003E-001	9.96701E-006	0.00000E+000	4.79997E-001	0.00000E+000	8	...........	1466.80
	245	49.2	4.90030E-001	1.09621E-005	0.00000E+000	4.89994E-001	0.00000E+000	8	...........	1466.71
	250	50.2	5.00037E-001	1.20811E-005	0.00000E+000	5.00003E-001	0.00000E+000	8	...........	1466.71
	255	51.2	4.90037E-001	9.28111E-006	0.00000E+000	4.89994E-001	0.00000E+000	8	...........	1466.71
[...]
	330	66.2	3.40020E-001	8.31516E-007	0.00000E+000	3.40001E-001	0.00000E+000	7	...........	1466.71
	335	67.2	3.30008E-001	7.37386E-007	0.00000E+000	3.30004E-001	0.00000E+000	6	...........	1466.71
	340	68.2	3.19981E-001	6.39565E-007	0.00000E+000	3.19995E-001	0.00000E+000	6	...........	1466.80
	345	69.2	3.10012E-001	5.56015E-007	0.00000E+000	3.09998E-001	0.00000E+000	6	...........	1466.71
	350	70.2	3.00008E-001	4.75432E-007	0.00000E+000	3.00001E-001	0.00000E+000	6	...........	1466.71
	355	71.2	2.90011E-001	4.05326E-007	0.00000E+000	2.90004E-001	0.00000E+000	6	...........	1466.71
	360	72.2	2.79979E-001	3.44111E-007	0.00000E+000	2.79994E-001	0.00000E+000	6	...........	1466.71
	365	73.2	2.70006E-001	2.86891E-007	0.00000E+000	2.69997E-001	0.00000E+000	6	...........	1466.71
	370	74.2	2.60003E-001	2.27413E-007	0.00000E+000	2.60000E-001	0.00000E+000	6	...........	1466.71
	375	75.2	2.49990E-001	1.79149E-007	0.00000E+000	2.50003E-001	0.00000E+000	6	...........	1466.71
	380	76.2	2.39980E-001	1.30418E-007	0.00000E+000	2.39994E-001	0.00000E+000	6	...........	1466.71
	385	77.2	2.29971E-001	8.92324E-008	0.00000E+000	2.29997E-001	0.00000E+000	6	...........	1466.71
	390	78.2	2.19988E-001	6.39893E-008	0.00000E+000	2.20000E-001	0.00000E+000	5	...........	1466.71
	395	79.2	2.09984E-001	2.70889E-008	0.00000E+000	2.10003E-001	0.00000E+000	5	...........	1466.71
	400	80.2	1.99993E-001	-5.06069E-009	0.00000E+000	2.00006E-001	0.00000E+000	5	...........	1466.71
	405	81.2	1.89998E-001	-3.79924E-008	0.00000E+000	1.89996E-001	0.00000E+000	5	...........	1466.71
	410	82.2	1.80006E-001	-6.64290E-008	0.00000E+000	1.79999E-001	0.00000E+000	5	...........	1466.53
	415	83.2	1.70026E-001	-1.07272E-007	0.00000E+000	1.70002E-001	0.00000E+000	6	...........	1466.26
	420	84.2	1.59986E-001	-1.33013E-007	0.00000E+000	1.60005E-001	0.00000E+000	6	...........	1466.62
	425	85.2	1.49963E-001	-1.60221E-007	0.00000E+000	1.49996E-001	0.00000E+000	6	...........	1466.71
	430	86.2	1.39980E-001	-1.85211E-007	0.00000E+000	1.39999E-001	0.00000E+000	6	...........	1466.71
	435	87.2	1.30017E-001	-2.08229E-007	0.00000E+000	1.30002E-001	0.00000E+000	6	...........	1466.71
	440	88.2	1.19994E-001	-2.31505E-007	0.00000E+000	1.20005E-001	0.00000E+000	6	...........	1466.71
	445	89.2	1.09983E-001	-2.49610E-007	0.00000E+000	1.09995E-001	0.00000E+000	6	...........	1466.71
	450	90.2	9.99675E-002	-2.74069E-007	0.00000E+000	9.99984E-002	0.00000E+000	6	...........	1466.71
	455	91.2	9.00022E-002	-2.92393E-007	0.00000E+000	9.00014E-002	0.00000E+000	6	...........	1466.71
	460	92.2	8.00140E-002	-3.17301E-007	0.00000E+000	8.00044E-002	0.00000E+000	6	...........	1466.71
	465	93.2	6.99846E-002	-3.37492E-007	0.00000E+000	6.99949E-002	0.00000E+000	6	...........	1466.71
	470	94.2	5.99786E-002	-3.58461E-007	0.00000E+000	5.99979E-002	0.00000E+000	6	...........	1466.71
	475	95.2	4.99611E-002	-3.78759E-007	0.00000E+000	5.00009E-002	0.00000E+000	6	...........	1466.71
	480	96.2	4.00028E-002	-4.03926E-007	0.00000E+000	4.00039E-002	0.00000E+000	6	...........	1466.71
	485	97.2	2.99947E-002	-4.25104E-007	0.00000E+000	2.99944E-002	0.00000E+000	6	...........	1466.71
	490	98.2	1.99794E-002	-4.46056E-007	0.00000E+000	1.99974E-002	0.00000E+000	6	...........	1466.71
	495	99.2	9.98926E-003	-4.66781E-007	0.00000E+000	1.00004E-002	0.00000E+000	6	...........	1466.71
	500	100.2	-6.52606E-005	-4.86866E-007	0.00000E+000	3.39746E-006	0.00000E+000	6	...........	1466.71
CURVE2	TABLE
	Pt	T	Vf	Im	Vu	Sig	Ach	IERange	Over	Temp
	#	s	V vs. Ref.	A	V	V	V	#	bits	deg C
	501	100.4	-7.25670E-005	-4.20846E-007	0.00000E+000	3.39746E-006	0.00000E+000	6	...........	1466.71