Folder: gamry_post_processing_/input (part 31)

File: test_file.DTA
EXPLAIN
TAG	LSV
TITLE	LABEL	LSV	Test Identifier
DATE	LABEL	11/7/2023	Date
TIME	LABEL	10:54:18	Time
NOTES	NOTES	1	Notes...

PSTAT	PSTAT	IFC1010-36108	Potentiostat
VINIT	POTEN	1.50000E+000	F	Initial E (V)
VFINAL	POTEN	0.00000E+000	F	Final E (V)
SCANRATE	QUANT	2.00000E+001	Scan Rate (mV/s)
STEPSIZE	QUANT	2.00000E+000	Step Size (mV)
IMODE	SELECTOR	0	I/E Range Mode
IRANGE	QUANT	3.00000E-001	Max Current (mA)
AREA	QUANT	1.00000E+000	Sample Area (cm^2)
EQDELAY	QUANT	0.00000E+000	Equil. Time (s)
IRCOMP	SELECTOR	0	IRComp
PFCOR	QUANT	5.00000E+001	PF Corr. (ohm)
SAMPLINGMODE	SELECTOR	1	Sampling Mode
EOC	QUANT	0	Open Circuit (V)
ELECTRODETYPE	SELECTOR	0	Electrode Type
STRIPPING	TOGGLE	F	Used for Stripping
SEQUENCER	TOGGLE	TRUE	Run as Sequence
PSTATMODEL	IQUANT	64	Pstat Model
PSTATSECTION	LABEL	IFC1010-36108	Pstat Section
PSTATSERIALNO	LABEL	36108	Pstat Serial Number
CTRLMODE	IQUANT	1	Control Mode
ELECTROMETER	IQUANT	0	RE=0 or CS=1
IESTAB	IQUANT	2	I/E Stability
CASPEED	IQUANT	4	Control Amp Speed
CONVENTION	IQUANT	1	Current Convention
ICHRANGE	IQUANT	2	Ich Range
ICHRANGEMODE	TOGGLE	F	Ich Auto Range
ICHOFFSETENABLE	TOGGLE	F	Ich Offset Enable
ICHOFFSET	QUANT	0	Ich Offset (V)
ICHFILTER	IQUANT	3	Ich Filter
VCHRANGE	IQUANT	2	Vch Range
VCHRANGEMODE	TOGGLE	F	Vch Auto Range
VCHOFFSETENABLE	TOGGLE	F	Vch Offset Enable
VCHOFFSET	QUANT	0	Vch Offset (V)
VCHFILTER	IQUANT	3	Vch Filter
IERANGELOWERLIMIT	IQUANT	4	I/E Range Lower Limit
IERANGEMODE	TOGGLE	T	I/E AutoRange
IERANGE	IQUANT	9	I/E Range
ACHSELECT	IQUANT	0	Ach Select
ACHRANGE	IQUANT	2	Ach Range
ACHOFFSETENABLE	TOGGLE	F	Ach Offset Enable
ACHOFFSET	QUANT	0	Ach Offset (V)
ACHFILTER	IQUANT	1	Ach Filter
SENSECABLEID	IQUANT	13	Sense Cable ID
PWRCABLEID	IQUANT	13	Power Cable ID
DCCALDATE	LABEL	8/10/2023	DC Calibration Date
ACCALDATE	LABEL	6/3/2023	AC Calibration Date
FRAMEWORKVERSION	LABEL	7.10.1	Framework Version
INSTRUMENTVERSION	LABEL	4.80	Instrument Version
COMMVERSION	LABEL	3.10	Communications Version
CPUPLDVERSION	LABEL	2.22	CPU PLD Version
CTRLPLDVERSION	LABEL	0.00	CTRL PLD Version
PSTATPLDVERSION	LABEL	0.00	PSTAT PLD Version
CURVE	TABLE	751
	Pt	T	Vf	Im	Vu	Sig	Ach	IERange	Over	Cycle	Temp
	#	s	V vs. Ref.	A	V	V	V	#	bits	#	deg C
	0	0.1	1.50008E+000	1.09347E-003	0.00000E+000	1.50000E+000	0.00000E+000	9	....ih..i..	0	1466.89
	8	0.9	1.48406E+000	3.33881E-003	0.00000E+000	1.48401E+000	0.00000E+000	10	...........	0	1466.89
	16	1.7	1.46807E+000	3.20897E-003	0.00000E+000	1.46802E+000	0.00000E+000	10	...........	0	1466.80
	24	2.5	1.45210E+000	3.08755E-003	0.00000E+000	1.45202E+000	0.00000E+000	10	...........	0	1466.71
	32	3.3	1.43605E+000	2.96569E-003	0.00000E+000	1.43598E+000	0.00000E+000	10	...........	0	1466.71
	40	4.1	1.42006E+000	2.84571E-003	0.00000E+000	1.41999E+000	0.00000E+000	10	...........	0	1466.71
	48	4.9	1.40407E+000	2.72685E-003	0.00000E+000	1.40400E+000	0.00000E+000	10	...........	0	1466.71
	56	5.7	1.38808E+000	2.61246E-003	0.00000E+000	1.38800E+000	0.00000E+000	10	...........	0	1466.71
	64	6.5	1.37209E+000	2.50000E-003	0.00000E+000	1.37201E+000	0.00000E+000	10	...........	0	1466.80
	72	7.3	1.35609E+000	2.38752E-003	0.00000E+000	1.35602E+000	0.00000E+000	10	...........	0	1466.71
	80	8.1	1.34009E+000	2.29142E-003	0.00000E+000	1.34002E+000	0.00000E+000	10	...........	0	1466.71
	88	8.9	1.32404E+000	2.18340E-003	0.00000E+000	1.32398E+000	0.00000E+000	10	...........	0	1466.71
	96	9.7	1.30806E+000	2.07812E-003	0.00000E+000	1.30799E+000	0.00000E+000	10	...........	0	1466.71
	104	10.5	1.29204E+000	1.97443E-003	0.00000E+000	1.29199E+000	0.00000E+000	10	...........	0	1466.71
	112	11.3	1.27606E+000	1.87484E-003	0.00000E+000	1.27600E+000	0.00000E+000	10	...........	0	1466.71
	120	12.1	1.26006E+000	1.77793E-003	0.00000E+000	1.26001E+000	0.00000E+000	10	...........	0	1466.71
	128	12.9	1.24407E+000	1.68459E-003	0.00000E+000	1.24401E+000	0.00000E+000	10	...........	0	1466.71
	136	13.7	1.22808E+000	1.59547E-003	0.00000E+000	1.22802E+000	0.00000E+000	10	...........	0	1466.71
	144	14.5	1.21204E+000	1.51005E-003	0.00000E+000	1.21198E+000	0.00000E+000	10	...........	0	1466.71
	152	15.3	1.19605E+000	1.43064E-003	0.00000E+000	1.19598E+000	0.00000E+000	10	...........	0	1466.71
	160	16.1	1.18005E+000	1.35752E-003	0.00000E+000	1.17999E+000	0.00000E+000	10	...........	0	1466.71
	168	16.9	1.16405E+000	1.29021E-003	0.00000E+000	1.16400E+000	0.00000E+000	10	...........	0	1466.71
	176	17.7	1.14809E+000	1.22852E-003	0.00000E+000	1.14800E+000	0.00000E+000	10	...........	0	1466.71
	184	18.5	1.13209E+000	1.17261E-003	0.00000E+000	1.13201E+000	0.00000E+000	10	...........	0	1466.71
	192	19.3	1.11610E+000	1.12272E-003	0.00000E+000	1.11602E+000	0.00000E+000	10	...........	0	1466.71
	200	20.1	1.10008E+000	1.07875E-003	0.00000E+000	1.10002E+000	0.00000E+000	10	...........	0	1466.71
	208	20.9	1.08404E+000	1.04119E-003	0.00000E+000	1.08398E+000	0.00000E+000	10	...........	0	1466.71
	216	21.7	1.06804E+000	1.00848E-003	0.00000E+000	1.06799E+000	0.00000E+000	10	...........	0	1466.71
	224	22.5	1.05206E+000	9.75535E-004	0.00000E+000	1.05199E+000	0.00000E+000	10	...........	0	1466.71
	232	23.3	1.03605E+000	9.44313E-004	0.00000E+000	1.03600E+000	0.00000E+000	10	...........	0	1466.71
	240	24.1	1.02007E+000	9.14302E-004	0.00000E+000	1.02001E+000	0.00000E+000	10	...........	0	1466.71
	248	24.9	1.00408E+000	8.84868E-004	0.00000E+000	1.00401E+000	0.00000E+000	10	...........	0	1466.71
	256	25.7	9.88099E-001	8.55032E-004	0.00000E+000	9.88022E-001	0.00000E+000	10	...........	0	1466.71
	264	26.5	9.72019E-001	8.24886E-004	0.00000E+000	9.71978E-001	0.00000E+000	10	...........	0	1466.71
	272	27.3	9.56028E-001	7.93895E-004	0.00000E+000	9.55985E-001	0.00000E+000	9	...........	0	1466.71
	280	28.1	9.40051E-001	7.63641E-004	0.00000E+000	9.39992E-001	0.00000E+000	9	...........	0	1466.71
	288	28.9	9.24068E-001	7.32897E-004	0.00000E+000	9.23999E-001	0.00000E+000	9	...........	0	1466.80
	296	29.7	9.08044E-001	7.01434E-004	0.00000E+000	9.08006E-001	0.00000E+000	9	...........	0	1466.80
	304	30.5	8.92058E-001	6.69630E-004	0.00000E+000	8.92012E-001	0.00000E+000	9	...........	0	1466.71
	312	31.3	8.76070E-001	6.37696E-004	0.00000E+000	8.76019E-001	0.00000E+000	9	...........	0	1466.80
	320	32.1	8.60064E-001	6.06407E-004	0.00000E+000	8.60026E-001	0.00000E+000	9	...........	0	1466.80
	328	32.9	8.44007E-001	5.75667E-004	0.00000E+000	8.43983E-001	0.00000E+000	9	...........	0	1466.80
	336	33.7	8.28019E-001	5.45899E-004	0.00000E+000	8.27990E-001	0.00000E+000	9	...........	0	1466.80
	344	34.5	8.12031E-001	5.20737E-004	0.00000E+000	8.11996E-001	0.00000E+000	9	...........	0	1466.71
	352	35.3	7.96029E-001	4.94028E-004	0.00000E+000	7.96003E-001	0.00000E+000	9	...........	0	1466.71
	360	36.1	7.80031E-001	4.66896E-004	0.00000E+000	7.80010E-001	0.00000E+000	9	...........	0	1466.71
	368	36.9	7.64044E-001	4.40248E-004	0.00000E+000	7.64017E-001	0.00000E+000	9	...........	0	1466.71
	376	37.7	7.48065E-001	4.14551E-004	0.00000E+000	7.48024E-001	0.00000E+000	9	...........	0	1466.71
	384	38.5	7.32020E-001	3.89513E-004	0.00000E+000	7.31980E-001	0.00000E+000	9	...........	0	1466.80
	392	39.3	7.15990E-001	3.64982E-004	0.00000E+000	7.15987E-001	0.00000E+000	9	...........	0	1466.71
	400	40.1	7.00003E-001	3.40594E-004	0.00000E+000	6.99994E-001	0.00000E+000	9	...........	0	1466.71
[...]
	472	47.3	5.56009E-001	1.25660E-004	0.00000E+000	5.56005E-001	0.00000E+000	9	...........	0	1466.71
	480	48.1	5.40029E-001	1.03884E-004	0.00000E+000	5.40012E-001	0.00000E+000	9	...........	0	1466.71
	488	48.9	5.24027E-001	8.34216E-005	0.00000E+000	5.24019E-001	0.00000E+000	9	...........	0	1466.71
	496	49.7	5.08021E-001	6.46271E-005	0.00000E+000	5.08025E-001	0.00000E+000	8	...........	0	1466.71
	504	50.5	4.92000E-001	4.82335E-005	0.00000E+000	4.91982E-001	0.00000E+000	8	...........	0	1466.80
	512	51.3	4.76005E-001	3.46273E-005	0.00000E+000	4.75989E-001	0.00000E+000	8	...........	0	1466.71
	520	52.1	4.59975E-001	2.38877E-005	0.00000E+000	4.59996E-001	0.00000E+000	8	...........	0	1466.71
	528	52.9	4.43995E-001	1.59503E-005	0.00000E+000	4.44003E-001	0.00000E+000	8	...........	0	1466.71
	536	53.7	4.28015E-001	1.04787E-005	0.00000E+000	4.28009E-001	0.00000E+000	8	...........	0	1466.71
	544	54.5	4.11997E-001	6.90773E-006	0.00000E+000	4.12016E-001	0.00000E+000	7	...........	0	1466.71
	552	55.3	3.96020E-001	4.74137E-006	0.00000E+000	3.96023E-001	0.00000E+000	7	...........	0	1466.80
	560	56.1	3.79988E-001	3.39274E-006	0.00000E+000	3.79980E-001	0.00000E+000	7	...........	0	1466.80
	568	56.9	3.64006E-001	2.51009E-006	0.00000E+000	3.63987E-001	0.00000E+000	7	...........	0	1466.71
	576	57.7	3.48005E-001	1.82290E-006	0.00000E+000	3.47993E-001	0.00000E+000	7	...........	0	1466.71
	584	58.5	3.31991E-001	1.21176E-006	0.00000E+000	3.32000E-001	0.00000E+000	7	...........	0	1466.71
	592	59.3	3.16012E-001	6.42510E-007	0.00000E+000	3.16007E-001	0.00000E+000	6	...........	0	1466.71
	600	60.1	3.00021E-001	3.51178E-008	0.00000E+000	3.00014E-001	0.00000E+000	6	...........	0	1466.71
	608	60.9	2.84040E-001	-6.00374E-007	0.00000E+000	2.84021E-001	0.00000E+000	6	...........	0	1466.71
	616	61.7	2.67975E-001	-1.31779E-006	0.00000E+000	2.67977E-001	0.00000E+000	7	...........	0	1466.44
	624	62.5	2.51977E-001	-2.12975E-006	0.00000E+000	2.51984E-001	0.00000E+000	7	...........	0	1466.62
	632	63.3	2.35991E-001	-3.06490E-006	0.00000E+000	2.35991E-001	0.00000E+000	7	...........	0	1466.71
	640	64.1	2.20014E-001	-4.16627E-006	0.00000E+000	2.19998E-001	0.00000E+000	7	...........	0	1466.71
	648	64.9	2.04002E-001	-5.49340E-006	0.00000E+000	2.04004E-001	0.00000E+000	7	...........	0	1466.71
	656	65.7	1.88027E-001	-7.16268E-006	0.00000E+000	1.88011E-001	0.00000E+000	7	...........	0	1466.71
	664	66.5	1.72022E-001	-9.10950E-006	0.00000E+000	1.72018E-001	0.00000E+000	7	...........	0	1466.71
	672	67.3	1.56036E-001	-1.10503E-005	0.00000E+000	1.56025E-001	0.00000E+000	8	...........	0	1466.80
	680	68.1	1.39955E-001	-1.23024E-005	0.00000E+000	1.39982E-001	0.00000E+000	8	...........	0	1466.80
	688	68.9	1.23993E-001	-1.21906E-005	0.00000E+000	1.23988E-001	0.00000E+000	8	...........	0	1466.71
	696	69.7	1.08003E-001	-1.07832E-005	0.00000E+000	1.07995E-001	0.00000E+000	8	...........	0	1466.71
	704	70.5	9.20030E-002	-9.08373E-006	0.00000E+000	9.20020E-002	0.00000E+000	8	...........	0	1466.71
	712	71.3	7.60109E-002	-7.81877E-006	0.00000E+000	7.60089E-002	0.00000E+000	7	...........	0	1466.71
	720	72.1	6.00150E-002	-6.94905E-006	0.00000E+000	6.00156E-002	0.00000E+000	7	...........	0	1466.71
	728	72.9	4.40131E-002	-6.42140E-006	0.00000E+000	4.40224E-002	0.00000E+000	7	...........	0	1466.80
	736	73.7	2.80028E-002	-6.13036E-006	0.00000E+000	2.79793E-002	0.00000E+000	7	...........	0	1466.71
	744	74.5	1.19783E-002	-5.97033E-006	0.00000E+000	1.19860E-002	0.00000E+000	7	...........	0	1466.71
	750	75.1	-7.80218E-005	-5.90471E-006	0.00000E+000	-8.88109E-006	0.00000E+000	7	...........	0	1466.71