Folder: gamry_post_processing_/input

File: CHRONOA_STABILITY_#1_#1.DTA
EXPLAIN
TAG	CHRONOA
TITLE	LABEL	Chronoamperometry Scan	Test Identifier
DATE	LABEL	17.7.2024	Date
TIME	LABEL	11:10:33	Time
NOTES	NOTES	1	Notes...

PSTAT	PSTAT	IFC1010-34090	Potentiostat
VPRESTEP	POTEN	-4.00000E-001	F	Pre-step Voltage (V)
TPRESTEP	QUANT	3.00000E+001	Pre-step Delay Time (s)
VSTEP1	POTEN	-4.00000E-001	F	Step 1 Voltage (V)
TSTEP1	QUANT	3.00000E+001	Step 1 Time (s)
VSTEP2	POTEN	-4.00000E-001	F	Step 2 Voltage (V)
TSTEP2	QUANT	7.20000E+003	Step 2 Time (s)
SAMPLETIME	QUANT	4.99999E+000	Sample Period (s)
DECIMATE	TOGGLE	F	Decimate
ILIMIT	QUANT	6.00000E+001	Limit I (mA/cm^2)
IMODE	SELECTOR	0	I/E Range Mode
IRANGE	QUANT	3.00000E+001	Max Current (mA)
EQDELAY	QUANT	0.00000E+000	Equil. Time (s)
SAMPLINGMODE	SELECTOR	1	Sampling Mode
AREA	QUANT	1.00000E+000	Sample Area (cm^2)
IRCOMP	SELECTOR	0	IRComp
PFCOR	QUANT	5.00000E+001	PF Corr. (ohm)
ELECTRODETYPE	SELECTOR	0	Electrode Type
STRIPPING	TOGGLE	F	Used for Stripping
SEQUENCER	TOGGLE	TRUE	Run as Sequence
PSTATMODEL	IQUANT	64	Pstat Model
PSTATSECTION	LABEL	IFC1010-34090	Pstat Section
PSTATSERIALNO	LABEL	34090	Pstat Serial Number
CTRLMODE	IQUANT	1	Control Mode
ELECTROMETER	IQUANT	0	RE=0 or CS=1
IESTAB	IQUANT	0	I/E Stability
CASPEED	IQUANT	4	Control Amp Speed
CONVENTION	IQUANT	1	Current Convention
ICHRANGE	IQUANT	2	Ich Range
ICHRANGEMODE	TOGGLE	T	Ich Auto Range
ICHOFFSETENABLE	TOGGLE	F	Ich Offset Enable
ICHOFFSET	QUANT	0	Ich Offset (V)
ICHFILTER	IQUANT	4	Ich Filter
VCHRANGE	IQUANT	2	Vch Range
VCHRANGEMODE	TOGGLE	F	Vch Auto Range
VCHOFFSETENABLE	TOGGLE	F	Vch Offset Enable
VCHOFFSET	QUANT	0	Vch Offset (V)
VCHFILTER	IQUANT	4	Vch Filter
IERANGELOWERLIMIT	IQUANT	4	I/E Range Lower Limit
IERANGEMODE	TOGGLE	T	I/E AutoRange
IERANGE	IQUANT	11	I/E Range
ACHSELECT	IQUANT	0	Ach Select
ACHRANGE	IQUANT	2	Ach Range
ACHOFFSETENABLE	TOGGLE	F	Ach Offset Enable
ACHOFFSET	QUANT	0	Ach Offset (V)
ACHFILTER	IQUANT	1	Ach Filter
SENSECABLEID	IQUANT	13	Sense Cable ID
PWRCABLEID	IQUANT	13	Power Cable ID
DCCALDATE	LABEL	1/30/2024	DC Calibration Date
ACCALDATE	LABEL	1/8/2024	AC Calibration Date
FRAMEWORKVERSION	LABEL	7.10.3	Framework Version
INSTRUMENTVERSION	LABEL	4.91	Instrument Version
COMMVERSION	LABEL	3.10	Communications Version
CPUPLDVERSION	LABEL	2.22	CPU PLD Version
CTRLPLDVERSION	LABEL	0.00	CTRL PLD Version
PSTATPLDVERSION	LABEL	0.00	PSTAT PLD Version
CURVE	TABLE	1452
	Pt	T	Vf	Im	Vu	Sig	Ach	IERange	Over	Temp
	#	s	V vs. Ref.	A	V	V	V	#	bits	deg C
	0	-25	-3.99870E-001	-5.38268E-003	0.00000E+000	-3.99973E-001	0.00000E+000	11	...........	1467.25
	15	50	-3.99856E-001	-5.39626E-003	0.00000E+000	-3.99973E-001	0.00000E+000	10	...........	1467.25
	30	125	-3.99855E-001	-5.40351E-003	0.00000E+000	-3.99973E-001	0.00000E+000	10	...........	1467.25
	45	200	-3.99857E-001	-5.34680E-003	0.00000E+000	-3.99973E-001	0.00000E+000	10	...........	1467.25
	60	275	-3.99854E-001	-5.34770E-003	0.00000E+000	-3.99973E-001	0.00000E+000	10	...........	1467.25
	75	350	-3.99856E-001	-5.41895E-003	0.00000E+000	-3.99973E-001	0.00000E+000	10	...........	1467.25
	90	425	-3.99855E-001	-5.43557E-003	0.00000E+000	-3.99973E-001	0.00000E+000	10	...........	1467.25
	105	500	-3.99856E-001	-5.36945E-003	0.00000E+000	-3.99973E-001	0.00000E+000	10	...........	1467.25
	120	575	-3.99853E-001	-5.43415E-003	0.00000E+000	-3.99973E-001	0.00000E+000	10	...........	1467.25
	135	650	-3.99859E-001	-5.40346E-003	0.00000E+000	-3.99973E-001	0.00000E+000	10	...........	1467.26
	150	725	-3.99853E-001	-5.39831E-003	0.00000E+000	-3.99973E-001	0.00000E+000	10	...........	1467.25
	165	800	-3.99857E-001	-5.43752E-003	0.00000E+000	-3.99973E-001	0.00000E+000	10	...........	1467.33
	180	875	-3.99856E-001	-5.34935E-003	0.00000E+000	-3.99973E-001	0.00000E+000	10	...........	1467.26
	195	950	-3.99855E-001	-5.27092E-003	0.00000E+000	-3.99973E-001	0.00000E+000	10	...........	1467.26
	210	1025	-3.99853E-001	-5.33031E-003	0.00000E+000	-3.99973E-001	0.00000E+000	10	...........	1467.33
	225	1100	-3.99853E-001	-5.40482E-003	0.00000E+000	-3.99973E-001	0.00000E+000	10	...........	1467.34
	240	1175	-3.99855E-001	-5.32778E-003	0.00000E+000	-3.99973E-001	0.00000E+000	10	...........	1467.34
	255	1250	-3.99851E-001	-5.41814E-003	0.00000E+000	-3.99973E-001	0.00000E+000	10	...........	1467.34
	270	1325	-3.99853E-001	-5.35197E-003	0.00000E+000	-3.99973E-001	0.00000E+000	10	...........	1467.34
	285	1400	-3.99853E-001	-5.31880E-003	0.00000E+000	-3.99973E-001	0.00000E+000	10	...........	1467.34
	300	1475	-3.99855E-001	-5.39528E-003	0.00000E+000	-3.99973E-001	0.00000E+000	10	...........	1467.34
	315	1550	-3.99857E-001	-5.35348E-003	0.00000E+000	-3.99973E-001	0.00000E+000	10	...........	1467.34
	330	1625	-3.99854E-001	-5.40271E-003	0.00000E+000	-3.99973E-001	0.00000E+000	10	...........	1467.34
	345	1700	-3.99852E-001	-5.31284E-003	0.00000E+000	-3.99973E-001	0.00000E+000	10	...........	1467.34
	360	1775	-3.99855E-001	-5.33708E-003	0.00000E+000	-3.99973E-001	0.00000E+000	10	...........	1467.34
	375	1850	-3.99852E-001	-5.32231E-003	0.00000E+000	-3.99973E-001	0.00000E+000	10	...........	1467.34
	390	1925	-3.99850E-001	-5.32063E-003	0.00000E+000	-3.99973E-001	0.00000E+000	10	...........	1467.34
	405	2000	-3.99852E-001	-5.31856E-003	0.00000E+000	-3.99973E-001	0.00000E+000	10	...........	1467.34
	420	2075	-3.99851E-001	-5.33538E-003	0.00000E+000	-3.99973E-001	0.00000E+000	10	...........	1467.34
	435	2150	-3.99852E-001	-5.36268E-003	0.00000E+000	-3.99973E-001	0.00000E+000	10	...........	1467.34
	450	2225	-3.99855E-001	-5.20603E-003	0.00000E+000	-3.99973E-001	0.00000E+000	10	...........	1467.34
	465	2300	-3.99851E-001	-5.35607E-003	0.00000E+000	-3.99973E-001	0.00000E+000	10	...........	1467.34
	480	2375	-3.99848E-001	-5.36724E-003	0.00000E+000	-3.99973E-001	0.00000E+000	10	...........	1467.34
	495	2450	-3.99850E-001	-5.36596E-003	0.00000E+000	-3.99973E-001	0.00000E+000	10	...........	1467.34
	510	2525	-3.99850E-001	-5.33792E-003	0.00000E+000	-3.99973E-001	0.00000E+000	10	...........	1467.43
	525	2600	-3.99847E-001	-5.20741E-003	0.00000E+000	-3.99973E-001	0.00000E+000	10	...........	1467.43
	540	2675	-3.99854E-001	-5.30692E-003	0.00000E+000	-3.99973E-001	0.00000E+000	10	...........	1467.43
	555	2750	-3.99854E-001	-5.20629E-003	0.00000E+000	-3.99973E-001	0.00000E+000	10	...........	1467.43
	570	2825	-3.99847E-001	-5.22832E-003	0.00000E+000	-3.99973E-001	0.00000E+000	10	...........	1467.43
	585	2900	-3.99854E-001	-5.38930E-003	0.00000E+000	-3.99973E-001	0.00000E+000	10	...........	1467.43
	600	2975	-3.99849E-001	-5.36428E-003	0.00000E+000	-3.99973E-001	0.00000E+000	10	...........	1467.43
	615	3050	-3.99849E-001	-5.38003E-003	0.00000E+000	-3.99973E-001	0.00000E+000	10	...........	1467.43
	630	3125	-3.99847E-001	-5.40108E-003	0.00000E+000	-3.99973E-001	0.00000E+000	10	...........	1467.44
	645	3200	-3.99846E-001	-5.37974E-003	0.00000E+000	-3.99973E-001	0.00000E+000	10	...........	1467.51
	660	3275	-3.99852E-001	-5.25423E-003	0.00000E+000	-3.99973E-001	0.00000E+000	10	...........	1467.44
	675	3350	-3.99846E-001	-5.30450E-003	0.00000E+000	-3.99973E-001	0.00000E+000	10	...........	1467.43
	690	3425	-3.99848E-001	-5.21827E-003	0.00000E+000	-3.99973E-001	0.00000E+000	10	...........	1467.51
	705	3500	-3.99845E-001	-5.35243E-003	0.00000E+000	-3.99973E-001	0.00000E+000	10	...........	1467.51
[...]
	945	4700	-3.99841E-001	-5.56722E-003	0.00000E+000	-3.99973E-001	0.00000E+000	10	...........	1467.61
	960	4775	-3.99840E-001	-5.37620E-003	0.00000E+000	-3.99973E-001	0.00000E+000	10	...........	1467.61
	975	4850	-3.99845E-001	-5.39657E-003	0.00000E+000	-3.99973E-001	0.00000E+000	10	...........	1467.61
	990	4925	-3.99840E-001	-5.52180E-003	0.00000E+000	-3.99973E-001	0.00000E+000	10	...........	1467.61
	1005	5000	-3.99844E-001	-5.50403E-003	0.00000E+000	-3.99973E-001	0.00000E+000	10	...........	1467.61
	1020	5075	-3.99840E-001	-5.53280E-003	0.00000E+000	-3.99973E-001	0.00000E+000	10	...........	1467.61
	1035	5150	-3.99836E-001	-5.57590E-003	0.00000E+000	-3.99973E-001	0.00000E+000	10	...........	1467.62
	1050	5225	-3.99839E-001	-5.49034E-003	0.00000E+000	-3.99973E-001	0.00000E+000	10	...........	1467.61
	1065	5300	-3.99840E-001	-5.52718E-003	0.00000E+000	-3.99973E-001	0.00000E+000	10	...........	1467.69
	1080	5375	-3.99838E-001	-5.47280E-003	0.00000E+000	-3.99973E-001	0.00000E+000	10	...........	1467.70
	1095	5450	-3.99833E-001	-5.55587E-003	0.00000E+000	-3.99973E-001	0.00000E+000	10	...........	1467.70
	1110	5525	-3.99836E-001	-5.64030E-003	0.00000E+000	-3.99973E-001	0.00000E+000	10	...........	1467.70
	1125	5600	-3.99836E-001	-5.59759E-003	0.00000E+000	-3.99973E-001	0.00000E+000	10	...........	1467.70
	1140	5675	-3.99838E-001	-5.69009E-003	0.00000E+000	-3.99973E-001	0.00000E+000	10	...........	1467.70
	1155	5750	-3.99836E-001	-5.66248E-003	0.00000E+000	-3.99973E-001	0.00000E+000	10	...........	1467.70
	1170	5825	-3.99838E-001	-5.54479E-003	0.00000E+000	-3.99973E-001	0.00000E+000	10	...........	1467.70
	1185	5900	-3.99836E-001	-5.77181E-003	0.00000E+000	-3.99973E-001	0.00000E+000	10	...........	1467.70
	1200	5975	-3.99839E-001	-5.75242E-003	0.00000E+000	-3.99973E-001	0.00000E+000	10	...........	1467.78
	1215	6050	-3.99840E-001	-5.62928E-003	0.00000E+000	-3.99973E-001	0.00000E+000	10	...........	1467.70
	1230	6125	-3.99841E-001	-5.70770E-003	0.00000E+000	-3.99973E-001	0.00000E+000	10	...........	1467.71
	1245	6200	-3.99833E-001	-5.69800E-003	0.00000E+000	-3.99973E-001	0.00000E+000	10	...........	1467.79
	1260	6275	-3.99841E-001	-5.70440E-003	0.00000E+000	-3.99973E-001	0.00000E+000	10	...........	1467.79
	1275	6350	-3.99836E-001	-5.71049E-003	0.00000E+000	-3.99973E-001	0.00000E+000	10	...........	1467.79
	1290	6425	-3.99839E-001	-5.73778E-003	0.00000E+000	-3.99973E-001	0.00000E+000	10	...........	1467.79
	1305	6500	-3.99836E-001	-5.77263E-003	0.00000E+000	-3.99973E-001	0.00000E+000	10	...........	1467.79
	1320	6575	-3.99836E-001	-5.84123E-003	0.00000E+000	-3.99973E-001	0.00000E+000	10	...........	1467.79
	1335	6650	-3.99839E-001	-5.84344E-003	0.00000E+000	-3.99973E-001	0.00000E+000	10	...........	1467.79
	1350	6725	-3.99839E-001	-5.82355E-003	0.00000E+000	-3.99973E-001	0.00000E+000	10	...........	1467.79
	1365	6800	-3.99834E-001	-5.57074E-003	0.00000E+000	-3.99973E-001	0.00000E+000	10	...........	1467.79
	1380	6875	-3.99832E-001	-5.94028E-003	0.00000E+000	-3.99973E-001	0.00000E+000	10	...........	1467.79
	1395	6950	-3.99832E-001	-5.51715E-003	0.00000E+000	-3.99973E-001	0.00000E+000	10	...........	1467.79
	1410	7025	-3.99836E-001	-5.88718E-003	0.00000E+000	-3.99973E-001	0.00000E+000	10	...........	1467.79
	1425	7100	-3.99834E-001	-5.95775E-003	0.00000E+000	-3.99973E-001	0.00000E+000	10	...........	1467.79
	1440	7175	-3.99830E-001	-5.87516E-003	0.00000E+000	-3.99973E-001	0.00000E+000	10	...........	1467.79
	1451	7230	-3.99833E-001	-5.94348E-003	0.00000E+000	-3.99973E-001	0.00000E+000	10	...........	1467.79

File: CHRONOPOINTS_#1_#1.DTA
EXPLAIN
TAG	CHRONOA
TITLE	LABEL	CHRONOP	Test Identifier
DATE	LABEL	17.7.2024	Date
TIME	LABEL	10:49:20	Time
NOTES	NOTES	1	Notes...

PSTAT	PSTAT	IFC1010-34090	Potentiostat
VPRESTEP	POTEN	0.00000E+000	F	A Potential (V)
TPRESTEP	QUANT	1.00000E+000	Pre-step Delay Time (s)
VSTEP1	POTEN	0.00000E+000	F	A Potential (V)
TSTEP1	QUANT	5.00000E+000	Step 1 Time (s)
VSTEP2	POTEN	0.00000E+000	F	A Potential (V)
TSTEP2	QUANT	1.00000E+002	Step 2 Time (s)
SAMPLETIME	QUANT	1.00000E+000	Sample Period (s)
DECIMATE	TOGGLE	F	Decimate
ILIMIT	QUANT	6.00000E+001	Limit I (mA/cm^2)
IMODE	SELECTOR	0	I/E Range Mode
IRANGE	QUANT	3.00000E-001	Max Current (mA)
EQDELAY	QUANT	0.00000E+000	Equil. Time (s)
SAMPLINGMODE	SELECTOR	1	Sampling Mode
AREA	QUANT	1.00000E+000	Sample Area (cm^2)
IRCOMP	SELECTOR	0	IRComp
PFCOR	QUANT	5.00000E+001	PF Corr. (ohm)
ELECTRODETYPE	SELECTOR	0	Electrode Type
STRIPPING	TOGGLE	F	Used for Stripping
SEQUENCER	TOGGLE	TRUE	Run as Sequence
PSTATMODEL	IQUANT	64	Pstat Model
PSTATSECTION	LABEL	IFC1010-34090	Pstat Section
PSTATSERIALNO	LABEL	34090	Pstat Serial Number
CTRLMODE	IQUANT	1	Control Mode
ELECTROMETER	IQUANT	0	RE=0 or CS=1
IESTAB	IQUANT	0	I/E Stability
CASPEED	IQUANT	4	Control Amp Speed
CONVENTION	IQUANT	1	Current Convention
ICHRANGE	IQUANT	2	Ich Range
ICHRANGEMODE	TOGGLE	T	Ich Auto Range
ICHOFFSETENABLE	TOGGLE	F	Ich Offset Enable
ICHOFFSET	QUANT	0	Ich Offset (V)
ICHFILTER	IQUANT	4	Ich Filter
VCHRANGE	IQUANT	0	Vch Range
VCHRANGEMODE	TOGGLE	F	Vch Auto Range
VCHOFFSETENABLE	TOGGLE	F	Vch Offset Enable
VCHOFFSET	QUANT	0	Vch Offset (V)
VCHFILTER	IQUANT	4	Vch Filter
IERANGELOWERLIMIT	IQUANT	4	I/E Range Lower Limit
IERANGEMODE	TOGGLE	T	I/E AutoRange
IERANGE	IQUANT	9	I/E Range
ACHSELECT	IQUANT	0	Ach Select
ACHRANGE	IQUANT	2	Ach Range
ACHOFFSETENABLE	TOGGLE	F	Ach Offset Enable
ACHOFFSET	QUANT	0	Ach Offset (V)
ACHFILTER	IQUANT	1	Ach Filter
SENSECABLEID	IQUANT	13	Sense Cable ID
PWRCABLEID	IQUANT	13	Power Cable ID
DCCALDATE	LABEL	1/30/2024	DC Calibration Date
ACCALDATE	LABEL	1/8/2024	AC Calibration Date
FRAMEWORKVERSION	LABEL	7.10.3	Framework Version
INSTRUMENTVERSION	LABEL	4.91	Instrument Version
COMMVERSION	LABEL	3.10	Communications Version
CPUPLDVERSION	LABEL	2.22	CPU PLD Version
CTRLPLDVERSION	LABEL	0.00	CTRL PLD Version
PSTATPLDVERSION	LABEL	0.00	PSTAT PLD Version
CURVE	TABLE	106
	Pt	T	Vf	Im	Vu	Sig	Ach	IERange	Over	Temp
	#	s	V vs. Ref.	A	V	V	V	#	bits	deg C
	0	0	1.91977E-004	1.31079E-005	0.00000E+000	0.00000E+000	0.00000E+000	9	...........	1467.07
	2	2	1.89794E-004	1.16493E-005	0.00000E+000	0.00000E+000	0.00000E+000	8	...........	1467.61
	4	4	1.90002E-004	1.04408E-005	0.00000E+000	0.00000E+000	0.00000E+000	8	...........	1467.61
	6	6	1.90634E-004	9.28112E-006	0.00000E+000	0.00000E+000	0.00000E+000	8	...........	1467.61
	8	8	1.90416E-004	8.15949E-006	0.00000E+000	0.00000E+000	0.00000E+000	8	...........	1467.61
	10	10	1.84758E-004	7.07224E-006	0.00000E+000	0.00000E+000	0.00000E+000	7	...........	1467.61
	12	12	1.86682E-004	6.03244E-006	0.00000E+000	0.00000E+000	0.00000E+000	7	...........	1467.70
	14	14	1.86583E-004	5.03351E-006	0.00000E+000	0.00000E+000	0.00000E+000	7	...........	1467.70
	16	16	1.88828E-004	4.07811E-006	0.00000E+000	0.00000E+000	0.00000E+000	7	...........	1467.70
	18	18	1.88451E-004	3.08795E-006	0.00000E+000	0.00000E+000	0.00000E+000	7	...........	1467.70
	20	20	1.88349E-004	2.21868E-006	0.00000E+000	0.00000E+000	0.00000E+000	7	...........	1467.61
	22	22	1.90407E-004	1.43101E-006	0.00000E+000	0.00000E+000	0.00000E+000	7	...........	1467.61
	24	24	1.89597E-004	7.40187E-007	0.00000E+000	0.00000E+000	0.00000E+000	7	...........	1467.61
	26	26	1.89104E-004	1.44710E-007	0.00000E+000	0.00000E+000	0.00000E+000	6	...........	1467.70
	28	28	1.94420E-004	-3.30780E-007	0.00000E+000	0.00000E+000	0.00000E+000	6	...........	1467.70
	30	30	1.98326E-004	-7.23719E-007	0.00000E+000	0.00000E+000	0.00000E+000	6	...........	1467.61
	32	32	1.92623E-004	-1.09378E-006	0.00000E+000	0.00000E+000	0.00000E+000	7	...........	1467.61
	34	34	1.92583E-004	-1.41429E-006	0.00000E+000	0.00000E+000	0.00000E+000	7	...........	1467.61
	36	36	1.93431E-004	-1.72026E-006	0.00000E+000	0.00000E+000	0.00000E+000	7	...........	1467.70
	38	38	1.93300E-004	-2.02806E-006	0.00000E+000	0.00000E+000	0.00000E+000	7	...........	1467.61
	40	40	1.93284E-004	-2.34904E-006	0.00000E+000	0.00000E+000	0.00000E+000	7	...........	1467.70
	42	42	1.94812E-004	-2.67868E-006	0.00000E+000	0.00000E+000	0.00000E+000	7	...........	1467.61
	44	44	1.94210E-004	-3.01935E-006	0.00000E+000	0.00000E+000	0.00000E+000	7	...........	1467.61
	46	46	1.94515E-004	-3.37532E-006	0.00000E+000	0.00000E+000	0.00000E+000	7	...........	1467.61
	48	48	1.95394E-004	-3.74964E-006	0.00000E+000	0.00000E+000	0.00000E+000	7	...........	1467.70
	50	50	1.94388E-004	-4.15944E-006	0.00000E+000	0.00000E+000	0.00000E+000	7	...........	1467.61
	52	52	1.96041E-004	-4.61845E-006	0.00000E+000	0.00000E+000	0.00000E+000	7	...........	1467.70
	54	54	1.96087E-004	-5.11122E-006	0.00000E+000	0.00000E+000	0.00000E+000	7	...........	1467.70
	56	56	1.98563E-004	-5.61236E-006	0.00000E+000	0.00000E+000	0.00000E+000	7	...........	1467.70
	58	58	1.98312E-004	-6.11898E-006	0.00000E+000	0.00000E+000	0.00000E+000	7	...........	1467.70
	60	60	1.98316E-004	-6.62407E-006	0.00000E+000	0.00000E+000	0.00000E+000	7	...........	1467.70
	62	62	1.99152E-004	-7.12556E-006	0.00000E+000	0.00000E+000	0.00000E+000	7	...........	1467.70
	64	64	1.98693E-004	-7.61672E-006	0.00000E+000	0.00000E+000	0.00000E+000	7	...........	1467.70
	66	66	1.99118E-004	-8.09362E-006	0.00000E+000	0.00000E+000	0.00000E+000	7	...........	1467.70
	68	68	1.99655E-004	-8.55313E-006	0.00000E+000	0.00000E+000	0.00000E+000	7	...........	1467.70
	70	70	1.99881E-004	-8.99375E-006	0.00000E+000	0.00000E+000	0.00000E+000	7	...........	1467.70
	72	72	1.91653E-004	-9.41203E-006	0.00000E+000	0.00000E+000	0.00000E+000	8	...........	1467.61
	74	74	1.92519E-004	-9.80276E-006	0.00000E+000	0.00000E+000	0.00000E+000	8	...........	1467.70
	76	76	1.92173E-004	-1.01700E-005	0.00000E+000	0.00000E+000	0.00000E+000	8	...........	1467.70
	78	78	1.92413E-004	-1.05166E-005	0.00000E+000	0.00000E+000	0.00000E+000	8	...........	1467.61
	80	80	1.92496E-004	-1.08404E-005	0.00000E+000	0.00000E+000	0.00000E+000	8	...........	1467.61
	82	82	1.92916E-004	-1.11449E-005	0.00000E+000	0.00000E+000	0.00000E+000	8	...........	1467.70
	84	84	1.92536E-004	-1.14290E-005	0.00000E+000	0.00000E+000	0.00000E+000	8	...........	1467.61
	86	86	1.93737E-004	-1.16938E-005	0.00000E+000	0.00000E+000	0.00000E+000	8	...........	1467.70
	88	88	1.93517E-004	-1.19429E-005	0.00000E+000	0.00000E+000	0.00000E+000	8	...........	1467.61
	90	90	1.94351E-004	-1.21756E-005	0.00000E+000	0.00000E+000	0.00000E+000	8	...........	1467.61
	92	92	1.92750E-004	-1.23931E-005	0.00000E+000	0.00000E+000	0.00000E+000	8	...........	1467.61
	94	94	1.94198E-004	-1.25968E-005	0.00000E+000	0.00000E+000	0.00000E+000	8	...........	1467.61
	96	96	1.93175E-004	-1.27872E-005	0.00000E+000	0.00000E+000	0.00000E+000	8	...........	1467.70
	98	98	1.93703E-004	-1.29656E-005	0.00000E+000	0.00000E+000	0.00000E+000	8	...........	1467.61
	100	100	1.93154E-004	-1.31300E-005	0.00000E+000	0.00000E+000	0.00000E+000	8	...........	1467.61
	102	102	1.93472E-004	-1.32854E-005	0.00000E+000	0.00000E+000	0.00000E+000	8	...........	1467.61
	104	104	1.93391E-004	-1.34286E-005	0.00000E+000	0.00000E+000	0.00000E+000	8	...........	1467.61
	105	105	1.92997E-004	-1.34960E-005	0.00000E+000	0.00000E+000	0.00000E+000	8	...........	1467.70