Folder: gamry_post_processing_/input (part 25)

File: HER_#1_#3.DTA
EXPLAIN
TAG	LSV
TITLE	LABEL	HER	Test Identifier
DATE	LABEL	17.7.2024	Date
TIME	LABEL	10:44:14	Time
NOTES	NOTES	1	Notes...

PSTAT	PSTAT	IFC1010-34090	Potentiostat
VINIT	POTEN	0.00000E+000	F	Initial E (V)
VFINAL	POTEN	-6.00000E-001	F	Final E (V)
SCANRATE	QUANT	4.99999E+000	Scan Rate (mV/s)
STEPSIZE	QUANT	1.00000E+000	Step Size (mV)
IMODE	SELECTOR	0	I/E Range Mode
IRANGE	QUANT	3.00000E+001	Max Current (mA)
AREA	QUANT	1.00000E+000	Sample Area (cm^2)
EQDELAY	QUANT	0.00000E+000	Equil. Time (s)
IRCOMP	SELECTOR	0	IRComp
PFCOR	QUANT	5.00000E+001	PF Corr. (ohm)
SAMPLINGMODE	SELECTOR	1	Sampling Mode
EOC	QUANT	0.7205974	Open Circuit (V)
ELECTRODETYPE	SELECTOR	0	Electrode Type
STRIPPING	TOGGLE	F	Used for Stripping
SEQUENCER	TOGGLE	TRUE	Run as Sequence
PSTATMODEL	IQUANT	64	Pstat Model
PSTATSECTION	LABEL	IFC1010-34090	Pstat Section
PSTATSERIALNO	LABEL	34090	Pstat Serial Number
CTRLMODE	IQUANT	1	Control Mode
ELECTROMETER	IQUANT	0	RE=0 or CS=1
IESTAB	IQUANT	2	I/E Stability
CASPEED	IQUANT	4	Control Amp Speed
CONVENTION	IQUANT	1	Current Convention
ICHRANGE	IQUANT	2	Ich Range
ICHRANGEMODE	TOGGLE	F	Ich Auto Range
ICHOFFSETENABLE	TOGGLE	F	Ich Offset Enable
ICHOFFSET	QUANT	0	Ich Offset (V)
ICHFILTER	IQUANT	3	Ich Filter
VCHRANGE	IQUANT	2	Vch Range
VCHRANGEMODE	TOGGLE	F	Vch Auto Range
VCHOFFSETENABLE	TOGGLE	F	Vch Offset Enable
VCHOFFSET	QUANT	0	Vch Offset (V)
VCHFILTER	IQUANT	3	Vch Filter
IERANGELOWERLIMIT	IQUANT	4	I/E Range Lower Limit
IERANGEMODE	TOGGLE	T	I/E AutoRange
IERANGE	IQUANT	11	I/E Range
ACHSELECT	IQUANT	0	Ach Select
ACHRANGE	IQUANT	2	Ach Range
ACHOFFSETENABLE	TOGGLE	F	Ach Offset Enable
ACHOFFSET	QUANT	0	Ach Offset (V)
ACHFILTER	IQUANT	1	Ach Filter
SENSECABLEID	IQUANT	13	Sense Cable ID
PWRCABLEID	IQUANT	13	Power Cable ID
DCCALDATE	LABEL	1/30/2024	DC Calibration Date
ACCALDATE	LABEL	1/8/2024	AC Calibration Date
FRAMEWORKVERSION	LABEL	7.10.3	Framework Version
INSTRUMENTVERSION	LABEL	4.91	Instrument Version
COMMVERSION	LABEL	3.10	Communications Version
CPUPLDVERSION	LABEL	2.22	CPU PLD Version
CTRLPLDVERSION	LABEL	0.00	CTRL PLD Version
PSTATPLDVERSION	LABEL	0.00	PSTAT PLD Version
CURVE	TABLE	601
	Pt	T	Vf	Im	Vu	Sig	Ach	IERange	Over	Cycle	Temp
	#	s	V vs. Ref.	A	V	V	V	#	bits	#	deg C
	0	0.2	3.42376E-004	1.06187E-005	0.00000E+000	2.17557E-006	0.00000E+000	11	...........	0	1467.52
	7	1.6	-6.68207E-003	1.90583E-005	0.00000E+000	-6.99711E-003	0.00000E+000	8	...........	0	1467.52
	14	3	-1.37192E-002	1.80926E-005	0.00000E+000	-1.39964E-002	0.00000E+000	8	...........	0	1466.98
	21	4.4	-2.06948E-002	1.72035E-005	0.00000E+000	-2.09957E-002	0.00000E+000	8	...........	0	1466.89
	28	5.8	-2.77142E-002	1.64206E-005	0.00000E+000	-2.79950E-002	0.00000E+000	8	...........	0	1466.98
	35	7.2	-3.46962E-002	1.56955E-005	0.00000E+000	-3.49943E-002	0.00000E+000	8	...........	0	1466.98
	42	8.6	-4.17321E-002	1.49759E-005	0.00000E+000	-4.20060E-002	0.00000E+000	8	...........	0	1466.89
	49	10	-4.87161E-002	1.42964E-005	0.00000E+000	-4.90053E-002	0.00000E+000	8	...........	0	1466.98
	56	11.4	-5.57344E-002	1.36449E-005	0.00000E+000	-5.60046E-002	0.00000E+000	8	...........	0	1466.89
	63	12.8	-6.27280E-002	1.30236E-005	0.00000E+000	-6.30039E-002	0.00000E+000	8	...........	0	1466.89
	70	14.2	-6.97246E-002	1.24141E-005	0.00000E+000	-7.00032E-002	0.00000E+000	8	...........	0	1466.89
	77	15.6	-7.67283E-002	1.18016E-005	0.00000E+000	-7.70025E-002	0.00000E+000	8	...........	0	1466.89
	84	17	-8.37284E-002	1.10875E-005	0.00000E+000	-8.40018E-002	0.00000E+000	8	...........	0	1466.98
	91	18.4	-9.07554E-002	1.05056E-005	0.00000E+000	-9.10011E-002	0.00000E+000	8	...........	0	1466.89
	98	19.8	-9.77376E-002	9.96395E-006	0.00000E+000	-9.80004E-002	0.00000E+000	8	...........	0	1466.89
	105	21.2	-1.04754E-001	9.44658E-006	0.00000E+000	-1.05000E-001	0.00000E+000	8	...........	0	1466.98
	112	22.6	-1.11734E-001	8.95429E-006	0.00000E+000	-1.11999E-001	0.00000E+000	8	...........	0	1466.89
	119	24	-1.18749E-001	8.45711E-006	0.00000E+000	-1.18998E-001	0.00000E+000	8	...........	0	1466.98
	126	25.4	-1.25759E-001	7.96499E-006	0.00000E+000	-1.25998E-001	0.00000E+000	7	...........	0	1466.98
	133	26.8	-1.32762E-001	7.48926E-006	0.00000E+000	-1.32997E-001	0.00000E+000	7	...........	0	1466.94
	140	28.2	-1.39742E-001	7.01327E-006	0.00000E+000	-1.39996E-001	0.00000E+000	7	...........	0	1466.98
	147	29.6	-1.46767E-001	6.50665E-006	0.00000E+000	-1.46995E-001	0.00000E+000	7	...........	0	1466.98
	154	31	-1.53763E-001	5.93111E-006	0.00000E+000	-1.53995E-001	0.00000E+000	7	...........	0	1466.98
	161	32.4	-1.60754E-001	5.22828E-006	0.00000E+000	-1.60994E-001	0.00000E+000	7	...........	0	1466.98
	168	33.8	-1.67775E-001	4.31099E-006	0.00000E+000	-1.68006E-001	0.00000E+000	7	...........	0	1466.98
	175	35.2	-1.74759E-001	3.03881E-006	0.00000E+000	-1.75005E-001	0.00000E+000	7	...........	0	1466.98
	182	36.6	-1.81770E-001	1.28245E-006	0.00000E+000	-1.82004E-001	0.00000E+000	7	...........	0	1466.98
	189	38	-1.88778E-001	-1.29897E-006	0.00000E+000	-1.89004E-001	0.00000E+000	7	...........	0	1466.98
	196	39.4	-1.95776E-001	-5.15816E-006	0.00000E+000	-1.96003E-001	0.00000E+000	7	...........	0	1466.89
	203	40.8	-2.02774E-001	-1.10220E-005	0.00000E+000	-2.03002E-001	0.00000E+000	8	...........	0	1466.94
	210	42.2	-2.09770E-001	-1.99624E-005	0.00000E+000	-2.10001E-001	0.00000E+000	8	...........	0	1466.89
	217	43.6	-2.16766E-001	-3.35364E-005	0.00000E+000	-2.17001E-001	0.00000E+000	8	...........	0	1466.98
	224	45	-2.23774E-001	-5.39115E-005	0.00000E+000	-2.24000E-001	0.00000E+000	8	...........	0	1466.98
	231	46.4	-2.30798E-001	-8.39083E-005	0.00000E+000	-2.30999E-001	0.00000E+000	8	...........	0	1466.89
	238	47.8	-2.37778E-001	-1.26768E-004	0.00000E+000	-2.37999E-001	0.00000E+000	9	...........	0	1466.93
	245	49.2	-2.44801E-001	-1.88464E-004	0.00000E+000	-2.44998E-001	0.00000E+000	9	...........	0	1466.89
	252	50.6	-2.51783E-001	-2.91050E-004	0.00000E+000	-2.51997E-001	0.00000E+000	9	...........	0	1466.98
	259	52	-2.58797E-001	-4.28236E-004	0.00000E+000	-2.58996E-001	0.00000E+000	9	...........	0	1466.98
	266	53.4	-2.65797E-001	-6.00721E-004	0.00000E+000	-2.65996E-001	0.00000E+000	9	...........	0	1466.98
	273	54.8	-2.72787E-001	-8.08656E-004	0.00000E+000	-2.72995E-001	0.00000E+000	9	...........	0	1466.98
	280	56.2	-2.79798E-001	-1.04311E-003	0.00000E+000	-2.79994E-001	0.00000E+000	10	...........	0	1466.98
	287	57.6	-2.86792E-001	-1.31059E-003	0.00000E+000	-2.86994E-001	0.00000E+000	10	...........	0	1466.89
	294	59	-2.93806E-001	-1.60425E-003	0.00000E+000	-2.94005E-001	0.00000E+000	10	...........	0	1466.98
	301	60.4	-3.00822E-001	-1.91801E-003	0.00000E+000	-3.01005E-001	0.00000E+000	10	...........	0	1466.89
	308	61.8	-3.07813E-001	-2.23888E-003	0.00000E+000	-3.08004E-001	0.00000E+000	10	...........	0	1466.89
	315	63.2	-3.14813E-001	-2.56149E-003	0.00000E+000	-3.15003E-001	0.00000E+000	10	...........	0	1466.98
	322	64.6	-3.21817E-001	-2.88428E-003	0.00000E+000	-3.22003E-001	0.00000E+000	10	...........	0	1466.89
	329	66	-3.28820E-001	-3.20641E-003	0.00000E+000	-3.29002E-001	0.00000E+000	10	...........	0	1466.89
	336	67.4	-3.35821E-001	-3.53333E-003	0.00000E+000	-3.36001E-001	0.00000E+000	10	...........	0	1466.98
	343	68.8	-3.42830E-001	-3.85830E-003	0.00000E+000	-3.43000E-001	0.00000E+000	10	...........	0	1466.98
[...]
	364	73	-3.63823E-001	-4.76154E-003	0.00000E+000	-3.63998E-001	0.00000E+000	10	...........	0	1466.89
	371	74.4	-3.70821E-001	-5.02142E-003	0.00000E+000	-3.70998E-001	0.00000E+000	10	...........	0	1466.98
	378	75.8	-3.77832E-001	-5.28833E-003	0.00000E+000	-3.77997E-001	0.00000E+000	10	...........	0	1466.98
	385	77.2	-3.84829E-001	-5.51182E-003	0.00000E+000	-3.84996E-001	0.00000E+000	10	...........	0	1466.98
	392	78.6	-3.91828E-001	-6.28937E-003	0.00000E+000	-3.91995E-001	0.00000E+000	10	...........	0	1466.98
	399	80	-3.98846E-001	-6.57286E-003	0.00000E+000	-3.98995E-001	0.00000E+000	10	...........	0	1466.98
	406	81.4	-4.05831E-001	-6.76722E-003	0.00000E+000	-4.05994E-001	0.00000E+000	10	...........	0	1466.98
	413	82.8	-4.12857E-001	-6.97039E-003	0.00000E+000	-4.12993E-001	0.00000E+000	10	...........	0	1466.98
	420	84.2	-4.19851E-001	-7.36197E-003	0.00000E+000	-4.20005E-001	0.00000E+000	10	...........	0	1466.98
	427	85.6	-4.26862E-001	-7.57613E-003	0.00000E+000	-4.27004E-001	0.00000E+000	10	...........	0	1466.98
	434	87	-4.33844E-001	-7.76682E-003	0.00000E+000	-4.34004E-001	0.00000E+000	10	...........	0	1466.98
	441	88.4	-4.40863E-001	-8.59872E-003	0.00000E+000	-4.41003E-001	0.00000E+000	10	...........	0	1466.98
	448	89.8	-4.47841E-001	-8.66024E-003	0.00000E+000	-4.48002E-001	0.00000E+000	10	...........	0	1466.98
	455	91.2	-4.54884E-001	-8.96381E-003	0.00000E+000	-4.55002E-001	0.00000E+000	11	...........	0	1466.98
	462	92.6	-4.61899E-001	-9.41832E-003	0.00000E+000	-4.62001E-001	0.00000E+000	11	...........	0	1466.98
	469	94	-4.68907E-001	-9.62707E-003	0.00000E+000	-4.69000E-001	0.00000E+000	11	...........	0	1466.98
	476	95.4	-4.75890E-001	-9.84875E-003	0.00000E+000	-4.75999E-001	0.00000E+000	11	...........	0	1466.98
	483	96.8	-4.82899E-001	-1.02351E-002	0.00000E+000	-4.82999E-001	0.00000E+000	11	...........	0	1466.98
	490	98.2	-4.89910E-001	-1.03472E-002	0.00000E+000	-4.89998E-001	0.00000E+000	11	...........	0	1466.98
	497	99.6	-4.96887E-001	-1.06906E-002	0.00000E+000	-4.96997E-001	0.00000E+000	11	...........	0	1466.98
	504	101	-5.03902E-001	-1.08346E-002	0.00000E+000	-5.03997E-001	0.00000E+000	11	...........	0	1466.98
	511	102.4	-5.10887E-001	-1.15946E-002	0.00000E+000	-5.10996E-001	0.00000E+000	11	...........	0	1466.98
	518	103.8	-5.17907E-001	-1.15265E-002	0.00000E+000	-5.17995E-001	0.00000E+000	11	...........	0	1466.98
	525	105.2	-5.24906E-001	-1.18742E-002	0.00000E+000	-5.24994E-001	0.00000E+000	11	...........	0	1466.98
	532	106.6	-5.31908E-001	-1.22959E-002	0.00000E+000	-5.31994E-001	0.00000E+000	11	...........	0	1466.98
	539	108	-5.38912E-001	-1.26449E-002	0.00000E+000	-5.38993E-001	0.00000E+000	11	...........	0	1466.98
	546	109.4	-5.45910E-001	-1.27416E-002	0.00000E+000	-5.46005E-001	0.00000E+000	11	...........	0	1466.98
	553	110.8	-5.52927E-001	-1.32723E-002	0.00000E+000	-5.53004E-001	0.00000E+000	11	...........	0	1466.98
	560	112.2	-5.59901E-001	-1.33970E-002	0.00000E+000	-5.60003E-001	0.00000E+000	11	...........	0	1466.98
	567	113.6	-5.66949E-001	-1.33028E-002	0.00000E+000	-5.67003E-001	0.00000E+000	11	...........	0	1466.98
	574	115	-5.73921E-001	-1.39431E-002	0.00000E+000	-5.74002E-001	0.00000E+000	11	...........	0	1466.98
	581	116.4	-5.80927E-001	-1.41945E-002	0.00000E+000	-5.81001E-001	0.00000E+000	11	...........	0	1466.98
	588	117.8	-5.87929E-001	-1.44826E-002	0.00000E+000	-5.88001E-001	0.00000E+000	11	...........	0	1466.98
	595	119.2	-5.94910E-001	-1.46387E-002	0.00000E+000	-5.95000E-001	0.00000E+000	11	...........	0	1466.98
	600	120.2	-5.99930E-001	-1.47210E-002	0.00000E+000	-5.99999E-001	0.00000E+000	11	...........	0	1466.98

File: HER_#2_#1.DTA
EXPLAIN
TAG	LSV
TITLE	LABEL	HER	Test Identifier
DATE	LABEL	17.7.2024	Date
TIME	LABEL	13:35:12	Time
NOTES	NOTES	1	Notes...

PSTAT	PSTAT	IFC1010-34090	Potentiostat
VINIT	POTEN	0.00000E+000	F	Initial E (V)
VFINAL	POTEN	-6.00000E-001	F	Final E (V)
SCANRATE	QUANT	4.99999E+000	Scan Rate (mV/s)
STEPSIZE	QUANT	1.00000E+000	Step Size (mV)
IMODE	SELECTOR	0	I/E Range Mode
IRANGE	QUANT	3.00000E+001	Max Current (mA)
AREA	QUANT	1.00000E+000	Sample Area (cm^2)
EQDELAY	QUANT	0.00000E+000	Equil. Time (s)
IRCOMP	SELECTOR	0	IRComp
PFCOR	QUANT	5.00000E+001	PF Corr. (ohm)
SAMPLINGMODE	SELECTOR	1	Sampling Mode
EOC	QUANT	0.7205974	Open Circuit (V)
ELECTRODETYPE	SELECTOR	0	Electrode Type
STRIPPING	TOGGLE	F	Used for Stripping
SEQUENCER	TOGGLE	TRUE	Run as Sequence
PSTATMODEL	IQUANT	64	Pstat Model
PSTATSECTION	LABEL	IFC1010-34090	Pstat Section
PSTATSERIALNO	LABEL	34090	Pstat Serial Number
CTRLMODE	IQUANT	1	Control Mode
ELECTROMETER	IQUANT	0	RE=0 or CS=1
IESTAB	IQUANT	2	I/E Stability
CASPEED	IQUANT	4	Control Amp Speed
CONVENTION	IQUANT	1	Current Convention
ICHRANGE	IQUANT	2	Ich Range
ICHRANGEMODE	TOGGLE	F	Ich Auto Range
ICHOFFSETENABLE	TOGGLE	F	Ich Offset Enable
ICHOFFSET	QUANT	0	Ich Offset (V)
ICHFILTER	IQUANT	3	Ich Filter
VCHRANGE	IQUANT	2	Vch Range
VCHRANGEMODE	TOGGLE	F	Vch Auto Range
VCHOFFSETENABLE	TOGGLE	F	Vch Offset Enable
VCHOFFSET	QUANT	0	Vch Offset (V)
VCHFILTER	IQUANT	3	Vch Filter
IERANGELOWERLIMIT	IQUANT	4	I/E Range Lower Limit
IERANGEMODE	TOGGLE	T	I/E AutoRange
IERANGE	IQUANT	11	I/E Range
ACHSELECT	IQUANT	0	Ach Select
ACHRANGE	IQUANT	2	Ach Range
ACHOFFSETENABLE	TOGGLE	F	Ach Offset Enable
ACHOFFSET	QUANT	0	Ach Offset (V)
ACHFILTER	IQUANT	1	Ach Filter
SENSECABLEID	IQUANT	13	Sense Cable ID
PWRCABLEID	IQUANT	13	Power Cable ID
DCCALDATE	LABEL	1/30/2024	DC Calibration Date
ACCALDATE	LABEL	1/8/2024	AC Calibration Date
FRAMEWORKVERSION	LABEL	7.10.3	Framework Version
INSTRUMENTVERSION	LABEL	4.91	Instrument Version
COMMVERSION	LABEL	3.10	Communications Version
CPUPLDVERSION	LABEL	2.22	CPU PLD Version
CTRLPLDVERSION	LABEL	0.00	CTRL PLD Version
PSTATPLDVERSION	LABEL	0.00	PSTAT PLD Version
CURVE	TABLE	601
	Pt	T	Vf	Im	Vu	Sig	Ach	IERange	Over	Cycle	Temp
	#	s	V vs. Ref.	A	V	V	V	#	bits	#	deg C
	0	0.2	3.63444E-004	-3.03528E-005	0.00000E+000	2.17557E-006	0.00000E+000	11	...........	0	1468.52
	7	1.6	-6.65810E-003	-2.01753E-005	0.00000E+000	-6.99711E-003	0.00000E+000	8	...........	0	1468.52
	14	3	-1.36685E-002	-2.02893E-005	0.00000E+000	-1.39964E-002	0.00000E+000	8	...........	0	1467.88
	21	4.4	-2.06678E-002	-2.03891E-005	0.00000E+000	-2.09957E-002	0.00000E+000	8	...........	0	1467.88
	28	5.8	-2.76726E-002	-2.04768E-005	0.00000E+000	-2.79950E-002	0.00000E+000	8	...........	0	1467.88
	35	7.2	-3.46684E-002	-2.05688E-005	0.00000E+000	-3.49943E-002	0.00000E+000	8	...........	0	1467.88
	42	8.6	-4.17009E-002	-2.06684E-005	0.00000E+000	-4.20060E-002	0.00000E+000	8	...........	0	1467.88
	49	10	-4.86892E-002	-2.07601E-005	0.00000E+000	-4.90053E-002	0.00000E+000	8	...........	0	1467.88
	56	11.4	-5.56995E-002	-2.08578E-005	0.00000E+000	-5.60046E-002	0.00000E+000	8	...........	0	1467.88
	63	12.8	-6.26895E-002	-2.09508E-005	0.00000E+000	-6.30039E-002	0.00000E+000	8	...........	0	1467.88
	70	14.2	-6.96945E-002	-2.10532E-005	0.00000E+000	-7.00032E-002	0.00000E+000	8	...........	0	1467.88
	77	15.6	-7.67069E-002	-2.11580E-005	0.00000E+000	-7.70025E-002	0.00000E+000	8	...........	0	1467.88
	84	17	-8.37125E-002	-2.12598E-005	0.00000E+000	-8.40018E-002	0.00000E+000	8	...........	0	1467.88
	91	18.4	-9.07126E-002	-2.13664E-005	0.00000E+000	-9.10011E-002	0.00000E+000	8	...........	0	1467.88
	98	19.8	-9.76945E-002	-2.14729E-005	0.00000E+000	-9.80004E-002	0.00000E+000	8	...........	0	1467.88
	105	21.2	-1.04724E-001	-2.15941E-005	0.00000E+000	-1.05000E-001	0.00000E+000	8	...........	0	1467.88
	112	22.6	-1.11699E-001	-2.17123E-005	0.00000E+000	-1.11999E-001	0.00000E+000	8	...........	0	1467.88
	119	24	-1.18711E-001	-2.18519E-005	0.00000E+000	-1.18998E-001	0.00000E+000	8	...........	0	1467.88
	126	25.4	-1.25707E-001	-2.19979E-005	0.00000E+000	-1.25998E-001	0.00000E+000	8	...........	0	1467.88
	133	26.8	-1.32724E-001	-2.21536E-005	0.00000E+000	-1.32997E-001	0.00000E+000	8	...........	0	1467.88
	140	28.2	-1.39708E-001	-2.23353E-005	0.00000E+000	-1.39996E-001	0.00000E+000	8	...........	0	1467.88
	147	29.6	-1.46722E-001	-2.25423E-005	0.00000E+000	-1.46995E-001	0.00000E+000	8	...........	0	1467.88
	154	31	-1.53723E-001	-2.27951E-005	0.00000E+000	-1.53995E-001	0.00000E+000	8	...........	0	1467.88
	161	32.4	-1.60734E-001	-2.31138E-005	0.00000E+000	-1.60994E-001	0.00000E+000	8	...........	0	1467.88
	168	33.8	-1.67747E-001	-2.35364E-005	0.00000E+000	-1.68006E-001	0.00000E+000	8	...........	0	1467.88
	175	35.2	-1.74736E-001	-2.41128E-005	0.00000E+000	-1.75005E-001	0.00000E+000	8	...........	0	1467.88
	182	36.6	-1.81743E-001	-2.49621E-005	0.00000E+000	-1.82004E-001	0.00000E+000	8	...........	0	1467.88
	189	38	-1.88749E-001	-2.62016E-005	0.00000E+000	-1.89004E-001	0.00000E+000	8	...........	0	1467.88
	196	39.4	-1.95748E-001	-2.80858E-005	0.00000E+000	-1.96003E-001	0.00000E+000	8	...........	0	1467.88
	203	40.8	-2.02749E-001	-3.09899E-005	0.00000E+000	-2.03002E-001	0.00000E+000	8	...........	0	1467.88
	210	42.2	-2.09742E-001	-3.55175E-005	0.00000E+000	-2.10001E-001	0.00000E+000	8	...........	0	1467.88
	217	43.6	-2.16728E-001	-4.26267E-005	0.00000E+000	-2.17001E-001	0.00000E+000	8	...........	0	1467.88
	224	45	-2.23744E-001	-5.46659E-005	0.00000E+000	-2.24000E-001	0.00000E+000	8	...........	0	1467.88
	231	46.4	-2.30767E-001	-7.56138E-005	0.00000E+000	-2.30999E-001	0.00000E+000	8	...........	0	1467.88
	238	47.8	-2.37740E-001	-1.04326E-004	0.00000E+000	-2.37999E-001	0.00000E+000	9	...........	0	1467.97
	245	49.2	-2.44768E-001	-1.39729E-004	0.00000E+000	-2.44998E-001	0.00000E+000	9	...........	0	1467.88
	252	50.6	-2.51763E-001	-1.84568E-004	0.00000E+000	-2.51997E-001	0.00000E+000	9	...........	0	1467.88
	259	52	-2.58773E-001	-2.43645E-004	0.00000E+000	-2.58996E-001	0.00000E+000	9	...........	0	1467.88
	266	53.4	-2.65776E-001	-3.18332E-004	0.00000E+000	-2.65996E-001	0.00000E+000	9	...........	0	1467.88
	273	54.8	-2.72775E-001	-4.21071E-004	0.00000E+000	-2.72995E-001	0.00000E+000	9	...........	0	1467.88
	280	56.2	-2.79764E-001	-5.44768E-004	0.00000E+000	-2.79994E-001	0.00000E+000	9	...........	0	1467.88
	287	57.6	-2.86762E-001	-6.79681E-004	0.00000E+000	-2.86994E-001	0.00000E+000	9	...........	0	1467.88
	294	59	-2.93780E-001	-8.27180E-004	0.00000E+000	-2.94005E-001	0.00000E+000	9	...........	0	1467.97
	301	60.4	-3.00799E-001	-9.84598E-004	0.00000E+000	-3.01005E-001	0.00000E+000	10	...........	0	1467.97
	308	61.8	-3.07786E-001	-1.15046E-003	0.00000E+000	-3.08004E-001	0.00000E+000	10	...........	0	1467.88
	315	63.2	-3.14792E-001	-1.32679E-003	0.00000E+000	-3.15003E-001	0.00000E+000	10	...........	0	1467.88
	322	64.6	-3.21802E-001	-1.50431E-003	0.00000E+000	-3.22003E-001	0.00000E+000	10	...........	0	1467.88
	329	66	-3.28782E-001	-1.68605E-003	0.00000E+000	-3.29002E-001	0.00000E+000	10	...........	0	1467.88
	336	67.4	-3.35797E-001	-1.88070E-003	0.00000E+000	-3.36001E-001	0.00000E+000	10	...........	0	1467.88
	343	68.8	-3.42788E-001	-2.06727E-003	0.00000E+000	-3.43000E-001	0.00000E+000	10	...........	0	1467.88
[...]
	364	73	-3.63806E-001	-2.62485E-003	0.00000E+000	-3.63998E-001	0.00000E+000	10	...........	0	1467.88
	371	74.4	-3.70805E-001	-2.80355E-003	0.00000E+000	-3.70998E-001	0.00000E+000	10	...........	0	1467.88
	378	75.8	-3.77812E-001	-2.97616E-003	0.00000E+000	-3.77997E-001	0.00000E+000	10	...........	0	1467.88
	385	77.2	-3.84813E-001	-3.14620E-003	0.00000E+000	-3.84996E-001	0.00000E+000	10	...........	0	1467.88
	392	78.6	-3.91801E-001	-3.33957E-003	0.00000E+000	-3.91995E-001	0.00000E+000	10	...........	0	1467.88
	399	80	-3.98826E-001	-3.51075E-003	0.00000E+000	-3.98995E-001	0.00000E+000	10	...........	0	1467.88
	406	81.4	-4.05804E-001	-3.73628E-003	0.00000E+000	-4.05994E-001	0.00000E+000	10	...........	0	1467.88
	413	82.8	-4.12834E-001	-3.91160E-003	0.00000E+000	-4.12993E-001	0.00000E+000	10	...........	0	1467.88
	420	84.2	-4.19824E-001	-4.07383E-003	0.00000E+000	-4.20005E-001	0.00000E+000	10	...........	0	1467.88
	427	85.6	-4.26843E-001	-4.30617E-003	0.00000E+000	-4.27004E-001	0.00000E+000	10	...........	0	1467.88
	434	87	-4.33830E-001	-4.45911E-003	0.00000E+000	-4.34004E-001	0.00000E+000	10	...........	0	1467.88
	441	88.4	-4.40835E-001	-4.61890E-003	0.00000E+000	-4.41003E-001	0.00000E+000	10	...........	0	1467.88
	448	89.8	-4.47833E-001	-4.90206E-003	0.00000E+000	-4.48002E-001	0.00000E+000	10	...........	0	1467.88
	455	91.2	-4.54851E-001	-5.06558E-003	0.00000E+000	-4.55002E-001	0.00000E+000	10	...........	0	1467.88
	462	92.6	-4.61859E-001	-5.25360E-003	0.00000E+000	-4.62001E-001	0.00000E+000	10	...........	0	1467.88
	469	94	-4.68864E-001	-5.46458E-003	0.00000E+000	-4.69000E-001	0.00000E+000	10	...........	0	1467.88
	476	95.4	-4.75847E-001	-5.64436E-003	0.00000E+000	-4.75999E-001	0.00000E+000	10	...........	0	1467.88
	483	96.8	-4.82849E-001	-5.91964E-003	0.00000E+000	-4.82999E-001	0.00000E+000	10	...........	0	1467.88
	490	98.2	-4.89864E-001	-6.14920E-003	0.00000E+000	-4.89998E-001	0.00000E+000	10	...........	0	1467.88
	497	99.6	-4.96845E-001	-6.29573E-003	0.00000E+000	-4.96997E-001	0.00000E+000	10	...........	0	1467.88
	504	101	-5.03858E-001	-6.60427E-003	0.00000E+000	-5.03997E-001	0.00000E+000	10	...........	0	1467.88
	511	102.4	-5.10850E-001	-6.83933E-003	0.00000E+000	-5.10996E-001	0.00000E+000	10	...........	0	1467.88
	518	103.8	-5.17839E-001	-7.09044E-003	0.00000E+000	-5.17995E-001	0.00000E+000	10	...........	0	1467.88
	525	105.2	-5.24866E-001	-7.30109E-003	0.00000E+000	-5.24994E-001	0.00000E+000	10	...........	0	1467.88
	532	106.6	-5.31864E-001	-7.48435E-003	0.00000E+000	-5.31994E-001	0.00000E+000	10	...........	0	1467.88
	539	108	-5.38869E-001	-7.68275E-003	0.00000E+000	-5.38993E-001	0.00000E+000	10	...........	0	1467.88
	546	109.4	-5.45875E-001	-7.88378E-003	0.00000E+000	-5.46005E-001	0.00000E+000	10	...........	0	1467.97
	553	110.8	-5.52874E-001	-8.17227E-003	0.00000E+000	-5.53004E-001	0.00000E+000	10	...........	0	1467.88
	560	112.2	-5.59874E-001	-8.54375E-003	0.00000E+000	-5.60003E-001	0.00000E+000	10	...........	0	1467.88
	567	113.6	-5.66906E-001	-8.93806E-003	0.00000E+000	-5.67003E-001	0.00000E+000	11	...........	0	1467.97
	574	115	-5.73888E-001	-9.19951E-003	0.00000E+000	-5.74002E-001	0.00000E+000	11	...........	0	1467.88
	581	116.4	-5.80892E-001	-9.45844E-003	0.00000E+000	-5.81001E-001	0.00000E+000	11	...........	0	1467.88
	588	117.8	-5.87887E-001	-9.73188E-003	0.00000E+000	-5.88001E-001	0.00000E+000	11	...........	0	1467.88
	595	119.2	-5.94889E-001	-9.86656E-003	0.00000E+000	-5.95000E-001	0.00000E+000	11	...........	0	1467.88
	600	120.2	-5.99909E-001	-1.00985E-002	0.00000E+000	-5.99999E-001	0.00000E+000	11	...........	0	1467.88