Folder: gamry_post_processing_/input (part 27)

File: HER_POWROT_#1_#1.DTA
EXPLAIN
TAG	LSV
TITLE	LABEL	POWROT	Test Identifier
DATE	LABEL	26.6.2024	Date
TIME	LABEL	10:14:39	Time
NOTES	NOTES	1	Notes...

PSTAT	PSTAT	IFC1010-36108	Potentiostat
VINIT	POTEN	-8.00000E-001	F	Initial E (V)
VFINAL	POTEN	0.00000E+000	F	Final E (V)
SCANRATE	QUANT	4.99999E+000	Scan Rate (mV/s)
STEPSIZE	QUANT	1.00000E+000	Step Size (mV)
IMODE	SELECTOR	0	I/E Range Mode
IRANGE	QUANT	3.00000E+001	Max Current (mA)
AREA	QUANT	1.00000E+000	Sample Area (cm^2)
EQDELAY	QUANT	0.00000E+000	Equil. Time (s)
IRCOMP	SELECTOR	0	IRComp
PFCOR	QUANT	5.00000E+001	PF Corr. (ohm)
SAMPLINGMODE	SELECTOR	1	Sampling Mode
EOC	QUANT	0.4457435	Open Circuit (V)
ELECTRODETYPE	SELECTOR	0	Electrode Type
STRIPPING	TOGGLE	F	Used for Stripping
SEQUENCER	TOGGLE	TRUE	Run as Sequence
PSTATMODEL	IQUANT	64	Pstat Model
PSTATSECTION	LABEL	IFC1010-36108	Pstat Section
PSTATSERIALNO	LABEL	36108	Pstat Serial Number
CTRLMODE	IQUANT	1	Control Mode
ELECTROMETER	IQUANT	0	RE=0 or CS=1
IESTAB	IQUANT	2	I/E Stability
CASPEED	IQUANT	4	Control Amp Speed
CONVENTION	IQUANT	1	Current Convention
ICHRANGE	IQUANT	2	Ich Range
ICHRANGEMODE	TOGGLE	F	Ich Auto Range
ICHOFFSETENABLE	TOGGLE	F	Ich Offset Enable
ICHOFFSET	QUANT	0	Ich Offset (V)
ICHFILTER	IQUANT	3	Ich Filter
VCHRANGE	IQUANT	2	Vch Range
VCHRANGEMODE	TOGGLE	F	Vch Auto Range
VCHOFFSETENABLE	TOGGLE	F	Vch Offset Enable
VCHOFFSET	QUANT	0	Vch Offset (V)
VCHFILTER	IQUANT	3	Vch Filter
IERANGELOWERLIMIT	IQUANT	4	I/E Range Lower Limit
IERANGEMODE	TOGGLE	T	I/E AutoRange
IERANGE	IQUANT	11	I/E Range
ACHSELECT	IQUANT	0	Ach Select
ACHRANGE	IQUANT	2	Ach Range
ACHOFFSETENABLE	TOGGLE	F	Ach Offset Enable
ACHOFFSET	QUANT	0	Ach Offset (V)
ACHFILTER	IQUANT	1	Ach Filter
SENSECABLEID	IQUANT	13	Sense Cable ID
PWRCABLEID	IQUANT	13	Power Cable ID
DCCALDATE	LABEL	8/10/2023	DC Calibration Date
ACCALDATE	LABEL	6/3/2023	AC Calibration Date
FRAMEWORKVERSION	LABEL	7.10.3	Framework Version
INSTRUMENTVERSION	LABEL	4.91	Instrument Version
COMMVERSION	LABEL	3.10	Communications Version
CPUPLDVERSION	LABEL	2.22	CPU PLD Version
CTRLPLDVERSION	LABEL	0.00	CTRL PLD Version
PSTATPLDVERSION	LABEL	0.00	PSTAT PLD Version
CURVE	TABLE	801
	Pt	T	Vf	Im	Vu	Sig	Ach	IERange	Over	Cycle	Temp
	#	s	V vs. Ref.	A	V	V	V	#	bits	#	deg C
	0	0.2	-8.00135E-001	-4.92577E-003	0.00000E+000	-8.00005E-001	0.00000E+000	11	...........	0	1469.15
	9	2	-7.91093E-001	-4.27733E-003	0.00000E+000	-7.90996E-001	0.00000E+000	10	...........	0	1469.15
	18	3.8	-7.82131E-001	-3.83005E-003	0.00000E+000	-7.81998E-001	0.00000E+000	10	...........	0	1469.15
	27	5.6	-7.73122E-001	-5.08871E-003	0.00000E+000	-7.73001E-001	0.00000E+000	10	...........	0	1469.15
	36	7.4	-7.64111E-001	-4.03279E-003	0.00000E+000	-7.64004E-001	0.00000E+000	10	...........	0	1469.15
	45	9.2	-7.55103E-001	-3.58402E-003	0.00000E+000	-7.54994E-001	0.00000E+000	10	...........	0	1469.15
	54	11	-7.46119E-001	-3.26879E-003	0.00000E+000	-7.45997E-001	0.00000E+000	10	...........	0	1469.15
	63	12.8	-7.37108E-001	-2.88557E-003	0.00000E+000	-7.36999E-001	0.00000E+000	10	...........	0	1469.15
	72	14.6	-7.28113E-001	-2.65471E-003	0.00000E+000	-7.28002E-001	0.00000E+000	10	...........	0	1469.15
	81	16.4	-7.19139E-001	-2.69315E-003	0.00000E+000	-7.19005E-001	0.00000E+000	10	...........	0	1469.15
	90	18.2	-7.10092E-001	-2.49223E-003	0.00000E+000	-7.09995E-001	0.00000E+000	10	...........	0	1469.15
	99	20	-7.01109E-001	-2.20102E-003	0.00000E+000	-7.00998E-001	0.00000E+000	10	...........	0	1469.15
	108	21.8	-6.92125E-001	-1.99439E-003	0.00000E+000	-6.92000E-001	0.00000E+000	10	...........	0	1469.15
	117	23.6	-6.83125E-001	-1.74837E-003	0.00000E+000	-6.83003E-001	0.00000E+000	10	...........	0	1469.15
	126	25.4	-6.74103E-001	-1.52029E-003	0.00000E+000	-6.74006E-001	0.00000E+000	10	...........	0	1469.15
	135	27.2	-6.65131E-001	-1.33859E-003	0.00000E+000	-6.64996E-001	0.00000E+000	10	...........	0	1469.15
	144	29	-6.56120E-001	-1.28566E-003	0.00000E+000	-6.55999E-001	0.00000E+000	10	...........	0	1469.15
	153	30.8	-6.47124E-001	-1.08127E-003	0.00000E+000	-6.47001E-001	0.00000E+000	10	...........	0	1469.15
	162	32.6	-6.38112E-001	-9.40406E-004	0.00000E+000	-6.38004E-001	0.00000E+000	10	...........	0	1469.15
	171	34.4	-6.29108E-001	-8.16181E-004	0.00000E+000	-6.28994E-001	0.00000E+000	10	...........	0	1469.15
	180	36.2	-6.20109E-001	-7.01843E-004	0.00000E+000	-6.19997E-001	0.00000E+000	9	...........	0	1469.15
	189	38	-6.11114E-001	-6.27536E-004	0.00000E+000	-6.11000E-001	0.00000E+000	9	...........	0	1469.15
	198	39.8	-6.02133E-001	-5.27134E-004	0.00000E+000	-6.02002E-001	0.00000E+000	9	...........	0	1469.15
	207	41.6	-5.93129E-001	-4.27571E-004	0.00000E+000	-5.93005E-001	0.00000E+000	9	...........	0	1469.15
	216	43.4	-5.84102E-001	-3.49707E-004	0.00000E+000	-5.83995E-001	0.00000E+000	9	...........	0	1469.15
	225	45.2	-5.75112E-001	-2.87083E-004	0.00000E+000	-5.74998E-001	0.00000E+000	9	...........	0	1469.15
	234	47	-5.66138E-001	-2.31883E-004	0.00000E+000	-5.66001E-001	0.00000E+000	9	...........	0	1469.15
	243	48.8	-5.57120E-001	-1.84917E-004	0.00000E+000	-5.57003E-001	0.00000E+000	9	...........	0	1469.15
	252	50.6	-5.48121E-001	-1.45670E-004	0.00000E+000	-5.48006E-001	0.00000E+000	9	...........	0	1469.15
	261	52.4	-5.39126E-001	-1.17608E-004	0.00000E+000	-5.38996E-001	0.00000E+000	9	...........	0	1469.15
	270	54.2	-5.30124E-001	-9.36230E-005	0.00000E+000	-5.29999E-001	0.00000E+000	9	...........	0	1469.15
	279	56	-5.21104E-001	-7.29215E-005	0.00000E+000	-5.21002E-001	0.00000E+000	8	...........	0	1469.15
	288	57.8	-5.12107E-001	-5.80408E-005	0.00000E+000	-5.12004E-001	0.00000E+000	8	...........	0	1469.24
	297	59.6	-5.03127E-001	-4.80568E-005	0.00000E+000	-5.02994E-001	0.00000E+000	8	...........	0	1469.24
	306	61.4	-4.94114E-001	-4.06713E-005	0.00000E+000	-4.93997E-001	0.00000E+000	8	...........	0	1469.15
	315	63.2	-4.85101E-001	-3.40528E-005	0.00000E+000	-4.85000E-001	0.00000E+000	8	...........	0	1469.15
	324	65	-4.76120E-001	-2.88236E-005	0.00000E+000	-4.76003E-001	0.00000E+000	8	...........	0	1469.15
	333	66.8	-4.67118E-001	-2.79055E-005	0.00000E+000	-4.67005E-001	0.00000E+000	8	...........	0	1469.15
	342	68.6	-4.58105E-001	-2.29843E-005	0.00000E+000	-4.57996E-001	0.00000E+000	8	...........	0	1469.15
	351	70.4	-4.49125E-001	-1.91454E-005	0.00000E+000	-4.48998E-001	0.00000E+000	8	...........	0	1469.15
	360	72.2	-4.40122E-001	-1.62300E-005	0.00000E+000	-4.40001E-001	0.00000E+000	8	...........	0	1469.15
	369	74	-4.31104E-001	-1.39482E-005	0.00000E+000	-4.31004E-001	0.00000E+000	8	...........	0	1469.15
	378	75.8	-4.22118E-001	-1.21533E-005	0.00000E+000	-4.22006E-001	0.00000E+000	8	...........	0	1469.15
	387	77.6	-4.13099E-001	-1.07912E-005	0.00000E+000	-4.12997E-001	0.00000E+000	8	...........	0	1469.15
	396	79.4	-4.04143E-001	-9.72759E-006	0.00000E+000	-4.03999E-001	0.00000E+000	8	...........	0	1469.15
	405	81.2	-3.95135E-001	-8.89925E-006	0.00000E+000	-3.95002E-001	0.00000E+000	8	...........	0	1469.15
	414	83	-3.86163E-001	-8.33021E-006	0.00000E+000	-3.86005E-001	0.00000E+000	8	...........	0	1469.15
	423	84.8	-3.77114E-001	-7.96499E-006	0.00000E+000	-3.76995E-001	0.00000E+000	7	...........	0	1469.15
	432	86.6	-3.68130E-001	-7.61740E-006	0.00000E+000	-3.67997E-001	0.00000E+000	7	...........	0	1469.24
	441	88.4	-3.59139E-001	-7.33287E-006	0.00000E+000	-3.59000E-001	0.00000E+000	7	...........	0	1469.24
[...]
	495	99.2	-3.05115E-001	-6.26464E-006	0.00000E+000	-3.05004E-001	0.00000E+000	7	...........	0	1469.24
	504	101	-2.96135E-001	-6.12071E-006	0.00000E+000	-2.96007E-001	0.00000E+000	7	...........	0	1469.24
	513	102.8	-2.87124E-001	-6.00324E-006	0.00000E+000	-2.86997E-001	0.00000E+000	7	...........	0	1469.24
	522	104.6	-2.78096E-001	-5.86338E-006	0.00000E+000	-2.78000E-001	0.00000E+000	7	...........	0	1469.24
	531	106.4	-2.69137E-001	-5.73210E-006	0.00000E+000	-2.69002E-001	0.00000E+000	7	...........	0	1469.15
	540	108.2	-2.60140E-001	-5.58619E-006	0.00000E+000	-2.60005E-001	0.00000E+000	7	...........	0	1469.15
	549	110	-2.51102E-001	-5.45600E-006	0.00000E+000	-2.50995E-001	0.00000E+000	7	...........	0	1469.24
	558	111.8	-2.42106E-001	-5.30679E-006	0.00000E+000	-2.41998E-001	0.00000E+000	7	...........	0	1469.24
	567	113.6	-2.33113E-001	-5.16229E-006	0.00000E+000	-2.33001E-001	0.00000E+000	7	...........	0	1469.24
	576	115.4	-2.24101E-001	-5.04287E-006	0.00000E+000	-2.24003E-001	0.00000E+000	7	...........	0	1469.15
	585	117.2	-2.15131E-001	-4.90476E-006	0.00000E+000	-2.15006E-001	0.00000E+000	7	...........	0	1469.15
	594	119	-2.06122E-001	-4.77852E-006	0.00000E+000	-2.05996E-001	0.00000E+000	7	...........	0	1469.15
	603	120.8	-1.97122E-001	-4.62434E-006	0.00000E+000	-1.96999E-001	0.00000E+000	7	...........	0	1469.24
	612	122.6	-1.88122E-001	-4.47410E-006	0.00000E+000	-1.88001E-001	0.00000E+000	7	...........	0	1469.15
	621	124.4	-1.79134E-001	-4.33215E-006	0.00000E+000	-1.79004E-001	0.00000E+000	7	...........	0	1469.24
	630	126.2	-1.70139E-001	-4.18172E-006	0.00000E+000	-1.70007E-001	0.00000E+000	7	...........	0	1469.24
	639	128	-1.61112E-001	-4.01641E-006	0.00000E+000	-1.60997E-001	0.00000E+000	7	...........	0	1469.15
	648	129.8	-1.52112E-001	-3.86183E-006	0.00000E+000	-1.52000E-001	0.00000E+000	7	...........	0	1469.15
	657	131.6	-1.43123E-001	-3.70997E-006	0.00000E+000	-1.43003E-001	0.00000E+000	7	...........	0	1469.15
	666	133.4	-1.34123E-001	-3.57661E-006	0.00000E+000	-1.34005E-001	0.00000E+000	7	...........	0	1469.15
	675	135.2	-1.25104E-001	-3.42452E-006	0.00000E+000	-1.24995E-001	0.00000E+000	7	...........	0	1469.15
	684	137	-1.16131E-001	-3.28418E-006	0.00000E+000	-1.15998E-001	0.00000E+000	7	...........	0	1469.15
	693	138.8	-1.07104E-001	-3.13746E-006	0.00000E+000	-1.07001E-001	0.00000E+000	7	...........	0	1469.15
	702	140.6	-9.81131E-002	-2.99845E-006	0.00000E+000	-9.80035E-002	0.00000E+000	7	...........	0	1469.15
	711	142.4	-8.91062E-002	-2.86810E-006	0.00000E+000	-8.90062E-002	0.00000E+000	7	...........	0	1469.15
	720	144.2	-8.01316E-002	-2.72666E-006	0.00000E+000	-7.99964E-002	0.00000E+000	7	...........	0	1469.15
	729	146	-7.11112E-002	-2.59557E-006	0.00000E+000	-7.09991E-002	0.00000E+000	7	...........	0	1469.24
	738	147.8	-6.21048E-002	-2.44828E-006	0.00000E+000	-6.20018E-002	0.00000E+000	7	...........	0	1469.15
	747	149.6	-5.31236E-002	-2.31611E-006	0.00000E+000	-5.30045E-002	0.00000E+000	7	...........	0	1469.15
	756	151.4	-4.40915E-002	-2.18293E-006	0.00000E+000	-4.40072E-002	0.00000E+000	7	...........	0	1469.15
	765	153.2	-3.50932E-002	-2.06139E-006	0.00000E+000	-3.49974E-002	0.00000E+000	7	...........	0	1469.15
	774	155	-2.61067E-002	-1.93099E-006	0.00000E+000	-2.60001E-002	0.00000E+000	7	...........	0	1469.15
	783	156.8	-1.71084E-002	-1.79760E-006	0.00000E+000	-1.70028E-002	0.00000E+000	7	...........	0	1469.24
	792	158.6	-8.09836E-003	-1.69699E-006	0.00000E+000	-8.00550E-003	0.00000E+000	7	...........	0	1469.15
	800	160.2	-1.04345E-004	-1.57987E-006	0.00000E+000	4.58956E-006	0.00000E+000	7	...........	0	1469.15

File: HER_POWROT_#1_#2.DTA
EXPLAIN
TAG	LSV
TITLE	LABEL	POWROT	Test Identifier
DATE	LABEL	17.7.2024	Date
TIME	LABEL	10:41:14	Time
NOTES	NOTES	1	Notes...

PSTAT	PSTAT	IFC1010-34090	Potentiostat
VINIT	POTEN	-6.00000E-001	F	Initial E (V)
VFINAL	POTEN	0.00000E+000	F	Final E (V)
SCANRATE	QUANT	4.99999E+000	Scan Rate (mV/s)
STEPSIZE	QUANT	1.00000E+000	Step Size (mV)
IMODE	SELECTOR	0	I/E Range Mode
IRANGE	QUANT	3.00000E+001	Max Current (mA)
AREA	QUANT	1.00000E+000	Sample Area (cm^2)
EQDELAY	QUANT	0.00000E+000	Equil. Time (s)
IRCOMP	SELECTOR	0	IRComp
PFCOR	QUANT	5.00000E+001	PF Corr. (ohm)
SAMPLINGMODE	SELECTOR	1	Sampling Mode
EOC	QUANT	0.7205974	Open Circuit (V)
ELECTRODETYPE	SELECTOR	0	Electrode Type
STRIPPING	TOGGLE	F	Used for Stripping
SEQUENCER	TOGGLE	TRUE	Run as Sequence
PSTATMODEL	IQUANT	64	Pstat Model
PSTATSECTION	LABEL	IFC1010-34090	Pstat Section
PSTATSERIALNO	LABEL	34090	Pstat Serial Number
CTRLMODE	IQUANT	1	Control Mode
ELECTROMETER	IQUANT	0	RE=0 or CS=1
IESTAB	IQUANT	2	I/E Stability
CASPEED	IQUANT	4	Control Amp Speed
CONVENTION	IQUANT	1	Current Convention
ICHRANGE	IQUANT	2	Ich Range
ICHRANGEMODE	TOGGLE	F	Ich Auto Range
ICHOFFSETENABLE	TOGGLE	F	Ich Offset Enable
ICHOFFSET	QUANT	0	Ich Offset (V)
ICHFILTER	IQUANT	3	Ich Filter
VCHRANGE	IQUANT	2	Vch Range
VCHRANGEMODE	TOGGLE	F	Vch Auto Range
VCHOFFSETENABLE	TOGGLE	F	Vch Offset Enable
VCHOFFSET	QUANT	0	Vch Offset (V)
VCHFILTER	IQUANT	3	Vch Filter
IERANGELOWERLIMIT	IQUANT	4	I/E Range Lower Limit
IERANGEMODE	TOGGLE	T	I/E AutoRange
IERANGE	IQUANT	11	I/E Range
ACHSELECT	IQUANT	0	Ach Select
ACHRANGE	IQUANT	2	Ach Range
ACHOFFSETENABLE	TOGGLE	F	Ach Offset Enable
ACHOFFSET	QUANT	0	Ach Offset (V)
ACHFILTER	IQUANT	1	Ach Filter
SENSECABLEID	IQUANT	13	Sense Cable ID
PWRCABLEID	IQUANT	13	Power Cable ID
DCCALDATE	LABEL	1/30/2024	DC Calibration Date
ACCALDATE	LABEL	1/8/2024	AC Calibration Date
FRAMEWORKVERSION	LABEL	7.10.3	Framework Version
INSTRUMENTVERSION	LABEL	4.91	Instrument Version
COMMVERSION	LABEL	3.10	Communications Version
CPUPLDVERSION	LABEL	2.22	CPU PLD Version
CTRLPLDVERSION	LABEL	0.00	CTRL PLD Version
PSTATPLDVERSION	LABEL	0.00	PSTAT PLD Version
CURVE	TABLE	601
	Pt	T	Vf	Im	Vu	Sig	Ach	IERange	Over	Cycle	Temp
	#	s	V vs. Ref.	A	V	V	V	#	bits	#	deg C
	0	0.2	-5.99929E-001	-1.58947E-002	0.00000E+000	-5.99999E-001	0.00000E+000	11	...........	0	1467.07
	7	1.6	-5.92939E-001	-1.54535E-002	0.00000E+000	-5.93000E-001	0.00000E+000	11	...........	0	1466.62
	14	3	-5.85921E-001	-1.54678E-002	0.00000E+000	-5.86001E-001	0.00000E+000	11	...........	0	1467.07
	21	4.4	-5.78919E-001	-1.52302E-002	0.00000E+000	-5.79001E-001	0.00000E+000	11	...........	0	1466.80
	28	5.8	-5.71932E-001	-1.42215E-002	0.00000E+000	-5.72002E-001	0.00000E+000	11	...........	0	1466.62
	35	7.2	-5.64924E-001	-1.45184E-002	0.00000E+000	-5.65003E-001	0.00000E+000	11	...........	0	1466.62
	42	8.6	-5.57912E-001	-1.38945E-002	0.00000E+000	-5.58004E-001	0.00000E+000	11	...........	0	1467.07
	49	10	-5.50920E-001	-1.41410E-002	0.00000E+000	-5.51004E-001	0.00000E+000	11	...........	0	1466.80
	56	11.4	-5.43912E-001	-1.33755E-002	0.00000E+000	-5.44005E-001	0.00000E+000	11	...........	0	1466.62
	63	12.8	-5.36910E-001	-1.31051E-002	0.00000E+000	-5.37006E-001	0.00000E+000	11	...........	0	1466.62
	70	14.2	-5.29926E-001	-1.26306E-002	0.00000E+000	-5.30006E-001	0.00000E+000	11	...........	0	1467.07
	77	15.6	-5.22888E-001	-1.21216E-002	0.00000E+000	-5.22995E-001	0.00000E+000	11	...........	0	1466.62
	84	17	-5.15909E-001	-1.23705E-002	0.00000E+000	-5.15995E-001	0.00000E+000	11	...........	0	1466.62
	91	18.4	-5.08877E-001	-1.19622E-002	0.00000E+000	-5.08996E-001	0.00000E+000	11	...........	0	1467.07
	98	19.8	-5.01893E-001	-1.16062E-002	0.00000E+000	-5.01997E-001	0.00000E+000	11	...........	0	1466.98
	105	21.2	-4.94884E-001	-1.13305E-002	0.00000E+000	-4.94997E-001	0.00000E+000	11	...........	0	1466.71
	112	22.6	-4.87900E-001	-1.08903E-002	0.00000E+000	-4.87998E-001	0.00000E+000	11	...........	0	1466.62
	119	24	-4.80874E-001	-1.06666E-002	0.00000E+000	-4.80999E-001	0.00000E+000	11	...........	0	1466.62
	126	25.4	-4.73907E-001	-1.03952E-002	0.00000E+000	-4.74000E-001	0.00000E+000	11	...........	0	1466.80
	133	26.8	-4.66873E-001	-1.01351E-002	0.00000E+000	-4.67000E-001	0.00000E+000	11	...........	0	1466.62
	140	28.2	-4.59863E-001	-9.56989E-003	0.00000E+000	-4.60001E-001	0.00000E+000	11	...........	0	1466.62
	147	29.6	-4.52883E-001	-9.38253E-003	0.00000E+000	-4.53002E-001	0.00000E+000	11	...........	0	1466.62
	154	31	-4.45866E-001	-9.06477E-003	0.00000E+000	-4.46002E-001	0.00000E+000	11	...........	0	1466.62
	161	32.4	-4.38873E-001	-8.52365E-003	0.00000E+000	-4.39003E-001	0.00000E+000	11	...........	0	1466.62
	168	33.8	-4.31847E-001	-8.31616E-003	0.00000E+000	-4.32004E-001	0.00000E+000	11	...........	0	1467.07
	175	35.2	-4.24855E-001	-7.93679E-003	0.00000E+000	-4.25005E-001	0.00000E+000	10	...........	0	1467.07
	182	36.6	-4.17852E-001	-7.57352E-003	0.00000E+000	-4.18005E-001	0.00000E+000	10	...........	0	1466.98
	189	38	-4.10863E-001	-7.27692E-003	0.00000E+000	-4.11006E-001	0.00000E+000	10	...........	0	1466.89
	196	39.4	-4.03831E-001	-6.89916E-003	0.00000E+000	-4.03994E-001	0.00000E+000	10	...........	0	1466.71
	203	40.8	-3.96839E-001	-6.65434E-003	0.00000E+000	-3.96995E-001	0.00000E+000	10	...........	0	1466.62
	210	42.2	-3.89822E-001	-6.25271E-003	0.00000E+000	-3.89996E-001	0.00000E+000	10	...........	0	1466.62
	217	43.6	-3.82819E-001	-5.86690E-003	0.00000E+000	-3.82996E-001	0.00000E+000	10	...........	0	1466.62
	224	45	-3.75828E-001	-5.47554E-003	0.00000E+000	-3.75997E-001	0.00000E+000	10	...........	0	1466.62
	231	46.4	-3.68823E-001	-5.30490E-003	0.00000E+000	-3.68998E-001	0.00000E+000	10	...........	0	1466.62
	238	47.8	-3.61831E-001	-4.83410E-003	0.00000E+000	-3.61998E-001	0.00000E+000	10	...........	0	1466.62
	245	49.2	-3.54812E-001	-4.52333E-003	0.00000E+000	-3.54999E-001	0.00000E+000	10	...........	0	1467.07
	252	50.6	-3.47817E-001	-4.14472E-003	0.00000E+000	-3.48000E-001	0.00000E+000	10	...........	0	1467.07
	259	52	-3.40819E-001	-3.78480E-003	0.00000E+000	-3.41001E-001	0.00000E+000	10	...........	0	1466.98
	266	53.4	-3.33814E-001	-3.46788E-003	0.00000E+000	-3.34001E-001	0.00000E+000	10	...........	0	1466.80
	273	54.8	-3.26814E-001	-3.08305E-003	0.00000E+000	-3.27002E-001	0.00000E+000	10	...........	0	1466.71
	280	56.2	-3.19799E-001	-2.74104E-003	0.00000E+000	-3.20003E-001	0.00000E+000	10	...........	0	1466.62
	287	57.6	-3.12802E-001	-2.43630E-003	0.00000E+000	-3.13003E-001	0.00000E+000	10	...........	0	1466.62
	294	59	-3.05812E-001	-2.11080E-003	0.00000E+000	-3.06004E-001	0.00000E+000	10	...........	0	1466.62
	301	60.4	-2.98794E-001	-1.84954E-003	0.00000E+000	-2.99005E-001	0.00000E+000	10	...........	0	1466.62
	308	61.8	-2.91800E-001	-1.55438E-003	0.00000E+000	-2.92006E-001	0.00000E+000	10	...........	0	1466.62
	315	63.2	-2.84819E-001	-1.26809E-003	0.00000E+000	-2.85006E-001	0.00000E+000	10	...........	0	1466.53
	322	64.6	-2.77782E-001	-1.01394E-003	0.00000E+000	-2.77995E-001	0.00000E+000	10	...........	0	1466.98
	329	66	-2.70794E-001	-7.77715E-004	0.00000E+000	-2.70995E-001	0.00000E+000	10	...........	0	1466.98
	336	67.4	-2.63778E-001	-5.74165E-004	0.00000E+000	-2.63996E-001	0.00000E+000	9	...........	0	1466.89
	343	68.8	-2.56794E-001	-3.93175E-004	0.00000E+000	-2.56997E-001	0.00000E+000	9	...........	0	1466.80
[...]
	357	71.6	-2.42769E-001	-1.07451E-004	0.00000E+000	-2.42998E-001	0.00000E+000	9	...........	0	1466.62
	364	73	-2.35785E-001	-1.83945E-006	0.00000E+000	-2.35999E-001	0.00000E+000	8	...........	0	1466.53
	371	74.4	-2.28790E-001	8.49423E-005	0.00000E+000	-2.29000E-001	0.00000E+000	8	...........	0	1466.53
	378	75.8	-2.21760E-001	1.56745E-004	0.00000E+000	-2.22000E-001	0.00000E+000	9	...........	0	1466.71
	385	77.2	-2.14766E-001	2.15449E-004	0.00000E+000	-2.15001E-001	0.00000E+000	9	...........	0	1466.62
	392	78.6	-2.07768E-001	2.64050E-004	0.00000E+000	-2.08002E-001	0.00000E+000	9	...........	0	1466.98
	399	80	-2.00769E-001	3.04512E-004	0.00000E+000	-2.01002E-001	0.00000E+000	9	...........	0	1467.07
	406	81.4	-1.93785E-001	3.38293E-004	0.00000E+000	-1.94003E-001	0.00000E+000	9	...........	0	1466.98
	413	82.8	-1.86760E-001	3.66464E-004	0.00000E+000	-1.87004E-001	0.00000E+000	9	...........	0	1466.89
	420	84.2	-1.79774E-001	3.89816E-004	0.00000E+000	-1.80005E-001	0.00000E+000	9	...........	0	1466.80
	427	85.6	-1.72764E-001	4.08914E-004	0.00000E+000	-1.73005E-001	0.00000E+000	9	...........	0	1466.62
	434	87	-1.65754E-001	4.23906E-004	0.00000E+000	-1.66006E-001	0.00000E+000	9	...........	0	1466.62
	441	88.4	-1.58784E-001	4.34740E-004	0.00000E+000	-1.59007E-001	0.00000E+000	9	...........	0	1466.62
	448	89.8	-1.51730E-001	4.40768E-004	0.00000E+000	-1.51995E-001	0.00000E+000	9	...........	0	1466.62
	455	91.2	-1.44753E-001	4.38456E-004	0.00000E+000	-1.44996E-001	0.00000E+000	9	...........	0	1466.62
	462	92.6	-1.37735E-001	3.93022E-004	0.00000E+000	-1.37996E-001	0.00000E+000	9	...........	0	1466.62
	469	94	-1.30735E-001	3.90612E-004	0.00000E+000	-1.30997E-001	0.00000E+000	9	...........	0	1466.62
	476	95.4	-1.23737E-001	3.90279E-004	0.00000E+000	-1.23998E-001	0.00000E+000	9	...........	0	1467.07
	483	96.8	-1.16735E-001	3.89177E-004	0.00000E+000	-1.16998E-001	0.00000E+000	9	...........	0	1466.98
	490	98.2	-1.09720E-001	3.87208E-004	0.00000E+000	-1.09999E-001	0.00000E+000	9	...........	0	1466.89
	497	99.6	-1.02740E-001	3.84556E-004	0.00000E+000	-1.03000E-001	0.00000E+000	9	...........	0	1466.71
	504	101	-9.57334E-002	3.81522E-004	0.00000E+000	-9.60006E-002	0.00000E+000	9	...........	0	1466.62
	511	102.4	-8.87194E-002	3.78082E-004	0.00000E+000	-8.90013E-002	0.00000E+000	9	...........	0	1466.62
	518	103.8	-8.17262E-002	3.74255E-004	0.00000E+000	-8.20020E-002	0.00000E+000	9	...........	0	1466.62
	525	105.2	-7.47196E-002	3.69918E-004	0.00000E+000	-7.50027E-002	0.00000E+000	9	...........	0	1466.62
	532	106.6	-6.77285E-002	3.65045E-004	0.00000E+000	-6.80034E-002	0.00000E+000	9	...........	0	1466.62
	539	108	-6.07363E-002	3.59449E-004	0.00000E+000	-6.10041E-002	0.00000E+000	9	...........	0	1466.53
	546	109.4	-5.37295E-002	3.52903E-004	0.00000E+000	-5.40048E-002	0.00000E+000	9	...........	0	1467.07
	553	110.8	-4.67077E-002	3.44646E-004	0.00000E+000	-4.70055E-002	0.00000E+000	9	...........	0	1467.07
	560	112.2	-3.97177E-002	3.33801E-004	0.00000E+000	-4.00063E-002	0.00000E+000	9	...........	0	1466.98
	567	113.6	-3.27223E-002	3.18683E-004	0.00000E+000	-3.30070E-002	0.00000E+000	9	...........	0	1466.89
	574	115	-2.57048E-002	2.96289E-004	0.00000E+000	-2.59952E-002	0.00000E+000	9	...........	0	1466.71
	581	116.4	-1.86902E-002	2.62422E-004	0.00000E+000	-1.89959E-002	0.00000E+000	9	...........	0	1466.62
	588	117.8	-1.16826E-002	2.21759E-004	0.00000E+000	-1.19966E-002	0.00000E+000	9	...........	0	1466.62
	595	119.2	-4.68238E-003	1.93821E-004	0.00000E+000	-4.99731E-003	0.00000E+000	9	...........	0	1466.62
	600	120.2	3.46730E-004	1.88048E-004	0.00000E+000	2.17557E-006	0.00000E+000	9	...........	0	1466.62